Folder: bachelor_thesis/code/XRD_Analysis/Zeolites/data_files/SAPO-14/assynth

Note: README.md
# bachelor_thesis
Hydrogensiation of CO2 to higher alcohols

File: 20241001_SAPO-14-1_AP.xy
4.98146 912.0
5.26555 932.0
5.54964 900.0
5.83373 867.0
6.11782 806.0
6.40191 725.0
6.68601 729.0
6.9701 713.0
7.25419 662.0
7.53828 658.0
7.82237 654.0
8.10646 658.0
8.39055 700.0
8.67465 1072.0
8.95874 31003.0
9.24283 807.0
9.52692 787.0
9.81101 503.0
10.0951 491.0
10.3792 441.0
10.6633 471.0
10.9474 820.0
11.2315 721.0
11.5156 427.0
11.7997 399.0
12.0837 373.0
12.3678 335.0
12.6519 401.0
12.936 2287.0
13.2201 883.0
13.5042 383.0
13.7883 475.0
14.0724 336.0
14.3565 317.0
14.6406 382.0
14.9247 308.0
15.2088 345.0
15.4928 338.0
15.7769 3953.0
16.061 378.0
16.3451 301.0
16.6292 307.0
16.9133 256.0
17.1974 251.0
17.4815 295.0
17.7656 456.0
18.0497 1385.0
18.3338 246.0
18.6179 568.0
18.9019 303.0
19.186 456.0
19.4701 247.0
19.7542 400.0
20.0383 258.0
20.3224 601.0
20.6065 294.0
20.8906 1228.0
21.1747 283.0
21.4588 353.0
21.7429 4895.0
22.0269 566.0
22.311 1959.0
22.5951 6533.0
22.8792 1112.0
23.1633 433.0
23.4474 258.0
23.7315 431.0
24.0156 220.0
24.2997 605.0
24.5838 208.0
24.8679 192.0
25.152 201.0
25.436 776.0
25.7201 365.0
26.0042 570.0
26.2883 1314.0
26.5724 379.0
26.8565 339.0
27.1406 1526.0
27.4247 242.0
27.7088 746.0
27.9929 246.0
28.277 262.0
28.5611 483.0
28.8451 940.0
29.1292 413.0
29.4133 2009.0
29.6974 1651.0
29.9815 540.0
30.2656 1613.0
30.5497 369.0
30.8338 4284.0
31.1179 580.0
31.402 303.0
31.6861 214.0
31.9702 414.0
32.2542 442.0
32.5383 901.0
32.8224 243.0
33.1065 646.0
33.3906 319.0
33.6747 1308.0
33.9588 303.0
34.2429 493.0
34.527 223.0
34.8111 204.0
35.0952 679.0
35.3793 201.0
35.6633 862.0
35.9474 264.0
36.2315 214.0
36.5156 617.0
36.7997 247.0
37.0838 409.0
37.3679 297.0
37.652 149.0
37.9361 378.0
38.2202 344.0
38.5043 471.0
38.7884 519.0
39.0724 696.0
39.3565 449.0
39.6406 440.0
39.9247 301.0
40.2088 333.0
40.4929 494.0
40.777 763.0
41.0611 400.0
41.3452 155.0
41.6293 155.0
41.9134 223.0
42.1975 639.0
42.4815 254.0
42.7656 400.0
43.0497 284.0
43.3338 275.0
43.6179 185.0
43.902 266.0
44.1861 333.0
44.4702 729.0
44.7543 298.0
45.0384 295.0
45.3225 232.0
45.6066 326.0
45.8906 183.0
46.1747 284.0
46.4588 514.0
46.7429 289.0
47.027 292.0
47.3111 391.0
47.5952 264.0
47.8793 436.0
48.1634 285.0
48.4475 360.0
48.7316 396.0
49.0156 329.0
49.2997 251.0
49.5838 135.0
49.8679 268.0
50.152 251.0
50.4361 149.0
50.7202 167.0
51.0043 220.0
51.2884 197.0
51.5725 158.0
51.8566 299.0
52.1407 479.0
52.4247 314.0
52.7088 276.0
52.9929 287.0
53.277 275.0
53.5611 425.0
53.8452 445.0
54.1293 550.0
54.4134 470.0
54.6975 230.0
54.9816 227.0
55.2657 306.0
55.5498 141.0
55.8338 189.0
56.1179 277.0
56.402 168.0
56.6861 334.0
56.9702 264.0
57.2543 264.0
57.5384 291.0
57.8225 220.0
58.1066 227.0
58.3907 276.0
58.6748 160.0
58.9589 263.0
59.2429 229.0
59.527 268.0
59.8111 376.0
60.0952 207.0
60.3793 200.0
60.6634 344.0
60.9475 415.0
61.2316 344.0
61.5157 292.0
61.7998 236.0
62.0839 297.0
62.368 315.0
62.652 371.0
62.9361 302.0
63.2202 203.0
63.5043 248.0
63.7884 226.0
64.0725 304.0
64.3566 235.0
64.6407 128.0
64.9248 170.0
65.2089 243.0
65.493 243.0
65.7771 292.0
66.0611 355.0
66.3452 260.0
66.6293 162.0
66.9134 152.0
67.1975 150.0
67.4816 207.0
67.7657 216.0
68.0498 166.0
68.3339 244.0
68.618 256.0
68.9021 165.0
69.1862 182.0
69.4702 180.0
69.7543 215.0
70.0384 197.0
70.3225 214.0
70.6066 372.0
70.8907 380.0
71.1748 335.0
71.4589 290.0
71.743 288.0
72.0271 285.0
72.3112 308.0
72.5952 406.0
72.8793 241.0
73.1634 182.0
73.4475 132.0
73.7316 158.0
74.0157 233.0
74.2998 251.0
74.5839 247.0
74.868 247.0
75.1521 215.0
75.4362 227.0
75.7203 286.0
76.0043 268.0
76.2884 188.0
76.5725 183.0
76.8566 166.0
77.1407 126.0
77.4248 142.0
77.7089 179.0
77.993 172.0
78.2771 199.0
78.5612 233.0
78.8453 210.0
79.1294 254.0
79.4134 241.0
79.6975 248.0
79.9816 217.0
80.2657 242.0
80.5498 232.0
80.8339 224.0
81.118 219.0
81.4021 191.0
81.6862 172.0
81.9703 180.0
82.2544 194.0
82.5385 201.0
82.8225 184.0
83.1066 190.0
83.3907 176.0
83.6748 157.0
83.9589 167.0
84.243 158.0
84.5271 167.0
84.8112 128.0
85.0953 169.0
85.3794 158.0
85.6635 149.0
85.9476 149.0
86.2316 175.0
86.5157 170.0
86.7998 165.0
87.0839 165.0
87.368 149.0
87.6521 133.0
87.9362 125.0
88.2203 138.0
88.5044 149.0
88.7885 138.0
89.0726 118.0
89.3567 97.0
89.6407 139.0
89.9248 139.0
89.9415 145.0

File: 20241001_SAPO-14-2-AP.xy
4.98146 1051.0
5.26555 980.0
5.54964 944.0
5.83373 834.0
6.11782 849.0
6.40191 823.0
6.68601 747.0
6.9701 731.0
7.25419 927.0
7.53828 823.0
7.82237 641.0
8.10646 1446.0
8.39055 628.0
8.67465 615.0
8.95874 583.0
9.24283 769.0
9.52692 16196.0
9.81101 590.0
10.0951 556.0
10.3792 509.0
10.6633 509.0
10.9474 487.0
11.2315 486.0
11.5156 507.0
11.7997 490.0
12.0837 450.0
12.3678 454.0
12.6519 516.0
12.936 1431.0
13.2201 1072.0
13.5042 603.0
13.7883 586.0
14.0724 6338.0
14.3565 463.0
14.6406 442.0
14.9247 850.0
15.2088 407.0
15.4928 462.0
15.7769 2148.0
16.061 3191.0
16.3451 529.0
16.6292 407.0
16.9133 378.0
17.1974 417.0
17.4815 450.0
17.7656 759.0
18.0497 439.0
18.3338 502.0
18.6179 442.0
18.9019 494.0
19.186 691.0
19.4701 531.0
19.7542 2460.0
20.0383 692.0
20.3224 3290.0
20.6065 14156.0
20.8906 927.0
21.1747 5358.0
21.4588 2038.0
21.7429 1145.0
22.0269 1991.0
22.311 2777.0
22.5951 1400.0
22.8792 2589.0
23.1633 2487.0
23.4474 855.0
23.7315 569.0
24.0156 635.0
24.2997 3460.0
24.5838 879.0
24.8679 1145.0
25.152 2759.0
25.436 611.0
25.7201 619.0
26.0042 1216.0
26.2883 619.0
26.5724 1325.0
26.8565 502.0
27.1406 594.0
27.4247 556.0
27.7088 813.0
27.9929 589.0
28.277 2939.0
28.5611 555.0
28.8451 1126.0
29.1292 801.0
29.4133 542.0
29.6974 832.0
29.9815 1256.0
30.2656 576.0
30.5497 3946.0
30.8338 841.0
31.1179 3774.0
31.402 576.0
31.6861 2088.0
31.9702 532.0
32.2542 493.0
32.5383 470.0
32.8224 786.0
33.1065 445.0
33.3906 541.0
33.6747 996.0
33.9588 446.0
34.2429 570.0
34.527 1908.0
34.8111 1799.0
35.0952 430.0
35.3793 388.0
35.6633 690.0
35.9474 503.0
36.2315 696.0
36.5156 492.0
36.7997 364.0
37.0838 367.0
37.3679 392.0
37.652 666.0
37.9361 584.0
38.2202 588.0
38.5043 480.0
38.7884 528.0
39.0724 439.0
39.3565 441.0
39.6406 589.0
39.9247 316.0
40.2088 383.0
40.4929 411.0
40.777 367.0
41.0611 337.0
41.3452 373.0
41.6293 331.0
41.9134 446.0
42.1975 428.0
42.4815 341.0
42.7656 541.0
43.0497 781.0
43.3338 471.0
43.6179 450.0
43.902 378.0
44.1861 331.0
44.4702 332.0
44.7543 417.0
45.0384 424.0
45.3225 363.0
45.6066 353.0
45.8906 346.0
46.1747 357.0
46.4588 325.0
46.7429 423.0
47.027 335.0
47.3111 364.0
47.5952 803.0
47.8793 363.0
48.1634 338.0
48.4475 340.0
48.7316 457.0
49.0156 803.0
49.2997 383.0
49.5838 480.0
49.8679 338.0
50.152 330.0
50.4361 402.0
50.7202 790.0
51.0043 516.0
51.2884 420.0
51.5725 384.0
51.8566 432.0
52.1407 1360.0
52.4247 366.0
52.7088 379.0
52.9929 336.0
53.277 929.0
53.5611 423.0
53.8452 391.0
54.1293 332.0
54.4134 1193.0
54.6975 392.0
54.9816 350.0
55.2657 313.0
55.5498 460.0
55.8338 516.0
56.1179 514.0
56.402 519.0
56.6861 386.0
56.9702 324.0
57.2543 377.0
57.5384 307.0
57.8225 301.0
58.1066 340.0
58.3907 771.0
58.6748 466.0
58.9589 301.0
59.2429 324.0
59.527 602.0
59.8111 407.0
60.0952 416.0
60.3793 397.0
60.6634 387.0
60.9475 542.0
61.2316 564.0
61.5157 428.0
61.7998 364.0
62.0839 385.0
62.368 500.0
62.652 340.0
62.9361 411.0
63.2202 294.0
63.5043 385.0
63.7884 361.0
64.0725 388.0
64.3566 351.0
64.6407 332.0
64.9248 305.0
65.2089 294.0
65.493 362.0
65.7771 305.0
66.0611 509.0
66.3452 346.0
66.6293 331.0
66.9134 543.0
67.1975 393.0
67.4816 340.0
67.7657 300.0
68.0498 416.0
68.3339 310.0
68.618 301.0
68.9021 297.0
69.1862 370.0
69.4702 321.0
69.7543 447.0
70.0384 410.0
70.3225 331.0
70.6066 830.0
70.8907 419.0
71.1748 454.0
71.4589 456.0
71.743 333.0
72.0271 328.0
72.3112 385.0
72.5952 411.0
72.8793 344.0
73.1634 321.0
73.4475 393.0
73.7316 287.0
74.0157 413.0
74.2998 314.0
74.5839 341.0
74.868 305.0
75.1521 445.0
75.4362 388.0
75.7203 297.0
76.0043 298.0
76.2884 314.0
76.5725 354.0
76.8566 303.0
77.1407 323.0
77.4248 347.0
77.7089 260.0
77.993 298.0
78.2771 311.0
78.5612 378.0
78.8453 302.0
79.1294 277.0
79.4134 298.0
79.6975 267.0
79.9816 319.0
80.2657 404.0
80.5498 349.0
80.8339 242.0
81.118 306.0
81.4021 330.0
81.6862 254.0
81.9703 306.0
82.2544 267.0
82.5385 289.0
82.8225 269.0
83.1066 252.0
83.3907 224.0
83.6748 194.0
83.9589 252.0
84.243 233.0
84.5271 179.0
84.8112 197.0
85.0953 200.0
85.3794 222.0
85.6635 212.0
85.9476 204.0
86.2316 191.0
86.5157 170.0
86.7998 212.0
87.0839 233.0
87.368 190.0
87.6521 229.0
87.9362 194.0
88.2203 258.0
88.5044 220.0
88.7885 223.0
89.0726 178.0
89.3567 189.0
89.6407 178.0
89.9248 180.0
89.9415 160.0

File: 20241028_SAPO-14-3-assynth-Probe-1.xy
4.98146 945.0
5.26555 942.0
5.54964 840.0
5.83373 801.0
6.11782 697.0
6.40191 734.0
6.68601 676.0
6.9701 663.0
7.25419 615.0
7.53828 628.0
7.82237 651.0
8.10646 592.0
8.39055 735.0
8.67465 1631.0
8.95874 23953.0
9.24283 834.0
9.52692 745.0
9.81101 571.0
10.0951 478.0
10.3792 466.0
10.6633 527.0
10.9474 1335.0
11.2315 903.0
11.5156 412.0
11.7997 377.0
12.0837 387.0
12.3678 372.0
12.6519 445.0
12.936 3605.0
13.2201 1209.0
13.5042 406.0
13.7883 491.0
14.0724 332.0
14.3565 325.0
14.6406 451.0
14.9247 365.0
15.2088 407.0
15.4928 407.0
15.7769 5401.0
16.061 429.0
16.3451 286.0
16.6292 268.0
16.9133 294.0
17.1974 304.0
17.4815 344.0
17.7656 839.0
18.0497 1400.0
18.3338 309.0
18.6179 620.0
18.9019 329.0
19.186 604.0
19.4701 259.0
19.7542 239.0
20.0383 266.0
20.3224 589.0
20.6065 326.0
20.8906 1589.0
21.1747 297.0
21.4588 406.0
21.7429 4801.0
22.0269 927.0
22.311 3237.0
22.5951 9568.0
22.8792 1874.0
23.1633 572.0
23.4474 293.0
23.7315 527.0
24.0156 208.0
24.2997 229.0
24.5838 217.0
24.8679 228.0
25.152 271.0
25.436 820.0
25.7201 455.0
26.0042 1396.0
26.2883 1448.0
26.5724 522.0
26.8565 409.0
27.1406 1464.0
27.4247 299.0
27.7088 1086.0
27.9929 260.0
28.277 259.0
28.5611 425.0
28.8451 1068.0
29.1292 717.0
29.4133 2721.0
29.6974 1961.0
29.9815 756.0
30.2656 2596.0
30.5497 423.0
30.8338 5016.0
31.1179 703.0
31.402 350.0
31.6861 260.0
31.9702 504.0
32.2542 514.0
32.5383 994.0
32.8224 263.0
33.1065 757.0
33.3906 396.0
33.6747 2075.0
33.9588 320.0
34.2429 503.0
34.527 198.0
34.8111 200.0
35.0952 835.0
35.3793 245.0
35.6633 1104.0
35.9474 279.0
36.2315 286.0
36.5156 517.0
36.7997 315.0
37.0838 385.0
37.3679 331.0
37.652 213.0
37.9361 443.0
38.2202 420.0
38.5043 539.0
38.7884 431.0
39.0724 590.0
39.3565 512.0
39.6406 436.0
39.9247 333.0
40.2088 451.0
40.4929 506.0
40.777 660.0
41.0611 564.0
41.3452 168.0
41.6293 163.0
41.9134 212.0
42.1975 648.0
42.4815 493.0
42.7656 306.0
43.0497 320.0
43.3338 300.0
43.6179 157.0
43.902 338.0
44.1861 399.0
44.4702 753.0
44.7543 394.0
45.0384 368.0
45.3225 228.0
45.6066 353.0
45.8906 216.0
46.1747 287.0
46.4588 734.0
46.7429 291.0
47.027 285.0
47.3111 303.0
47.5952 276.0
47.8793 626.0
48.1634 259.0
48.4475 353.0
48.7316 408.0
49.0156 376.0
49.2997 278.0
49.5838 102.0
49.8679 300.0
50.152 304.0
50.4361 190.0
50.7202 138.0
51.0043 210.0
51.2884 274.0
51.5725 173.0
51.8566 386.0
52.1407 521.0
52.4247 269.0
52.7088 328.0
52.9929 304.0
53.277 289.0
53.5611 491.0
53.8452 435.0
54.1293 678.0
54.4134 419.0
54.6975 288.0
54.9816 270.0
55.2657 469.0
55.5498 165.0
55.8338 180.0
56.1179 348.0
56.402 175.0
56.6861 326.0
56.9702 289.0
57.2543 325.0
57.5384 269.0
57.8225 356.0
58.1066 196.0
58.3907 239.0
58.6748 257.0
58.9589 274.0
59.2429 250.0
59.527 285.0
59.8111 391.0
60.0952 261.0
60.3793 223.0
60.6634 292.0
60.9475 487.0
61.2316 507.0
61.5157 337.0
61.7998 262.0
62.0839 329.0
62.368 346.0
62.652 455.0
62.9361 388.0
63.2202 247.0
63.5043 260.0
63.7884 272.0
64.0725 300.0
64.3566 243.0
64.6407 212.0
64.9248 225.0
65.2089 224.0
65.493 242.0
65.7771 335.0
66.0611 347.0
66.3452 351.0
66.6293 190.0
66.9134 167.0
67.1975 198.0
67.4816 210.0
67.7657 245.0
68.0498 184.0
68.3339 224.0
68.618 368.0
68.9021 236.0
69.1862 170.0
69.4702 179.0
69.7543 186.0
70.0384 246.0
70.3225 277.0
70.6066 349.0
70.8907 520.0
71.1748 393.0
71.4589 337.0
71.743 288.0
72.0271 355.0
72.3112 391.0
72.5952 407.0
72.8793 302.0
73.1634 203.0
73.4475 142.0
73.7316 190.0
74.0157 227.0
74.2998 286.0
74.5839 290.0
74.868 257.0
75.1521 215.0
75.4362 274.0
75.7203 257.0
76.0043 276.0
76.2884 214.0
76.5725 162.0
76.8566 184.0
77.1407 142.0
77.4248 115.0
77.7089 133.0
77.993 161.0
78.2771 177.0
78.5612 241.0
78.8453 216.0
79.1294 260.0
79.4134 216.0
79.6975 254.0
79.9816 236.0
80.2657 219.0
80.5498 237.0
80.8339 263.0
81.118 207.0
81.4021 155.0
81.6862 195.0
81.9703 151.0
82.2544 167.0
82.5385 205.0
82.8225 168.0
83.1066 163.0
83.3907 138.0
83.6748 108.0
83.9589 133.0
84.243 130.0
84.5271 119.0
84.8112 150.0
85.0953 160.0
85.3794 167.0
85.6635 141.0
85.9476 127.0
86.2316 159.0
86.5157 163.0
86.7998 152.0
87.0839 146.0
87.368 135.0
87.6521 150.0
87.9362 120.0
88.2203 125.0
88.5044 131.0
88.7885 118.0
89.0726 103.0
89.3567 104.0
89.6407 130.0
89.9248 144.0
89.9415 123.0

File: 20241028_SAPO-14-3-assynth-Probe-2.xy
4.98146 967.0
5.26555 909.0
5.54964 866.0
5.83373 810.0
6.11782 685.0
6.40191 738.0
6.68601 679.0
6.9701 637.0
7.25419 632.0
7.53828 610.0
7.82237 622.0
8.10646 621.0
8.39055 597.0
8.67465 912.0
8.95874 18465.0
9.24283 875.0
9.52692 7546.0
9.81101 482.0
10.0951 465.0
10.3792 431.0
10.6633 458.0
10.9474 636.0
11.2315 1765.0
11.5156 397.0
11.7997 386.0
12.0837 394.0
12.3678 391.0
12.6519 436.0
12.936 1149.0
13.2201 592.0
13.5042 423.0
13.7883 466.0
14.0724 585.0
14.3565 328.0
14.6406 408.0
14.9247 375.0
15.2088 358.0
15.4928 389.0
15.7769 2815.0
16.061 1174.0
16.3451 297.0
16.6292 321.0
16.9133 347.0
17.1974 302.0
17.4815 350.0
17.7656 637.0
18.0497 3402.0
18.3338 318.0
18.6179 465.0
18.9019 340.0
19.186 844.0
19.4701 311.0
19.7542 567.0
20.0383 357.0
20.3224 597.0
20.6065 4454.0
20.8906 2920.0
21.1747 397.0
21.4588 445.0
21.7429 2586.0
22.0269 1193.0
22.311 3130.0
22.5951 4337.0
22.8792 3627.0
23.1633 583.0
23.4474 386.0
23.7315 386.0
24.0156 329.0
24.2997 1595.0
24.5838 354.0
24.8679 367.0
25.152 2464.0
25.436 1159.0
25.7201 924.0
26.0042 511.0
26.2883 2635.0
26.5724 569.0
26.8565 358.0
27.1406 1274.0
27.4247 335.0
27.7088 1328.0
27.9929 351.0
28.277 950.0
28.5611 392.0
28.8451 1188.0
29.1292 994.0
29.4133 1088.0
29.6974 1924.0
29.9815 605.0
30.2656 1391.0
30.5497 2938.0
30.8338 4673.0
31.1179 2571.0
31.402 525.0
31.6861 466.0
31.9702 415.0
32.2542 917.0
32.5383 830.0
32.8224 307.0
33.1065 479.0
33.3906 426.0
33.6747 1265.0
33.9588 361.0
34.2429 503.0
34.527 428.0
34.8111 453.0
35.0952 839.0
35.3793 256.0
35.6633 1211.0
35.9474 275.0
36.2315 592.0
36.5156 885.0
36.7997 365.0
37.0838 373.0
37.3679 424.0
37.652 269.0
37.9361 445.0
38.2202 335.0
38.5043 676.0
38.7884 352.0
39.0724 832.0
39.3565 525.0
39.6406 531.0
39.9247 278.0
40.2088 496.0
40.4929 656.0
40.777 492.0
41.0611 604.0
41.3452 199.0
41.6293 222.0
41.9134 311.0
42.1975 711.0
42.4815 451.0
42.7656 527.0
43.0497 400.0
43.3338 673.0
43.6179 250.0
43.902 259.0
44.1861 472.0
44.4702 662.0
44.7543 360.0
45.0384 601.0
45.3225 286.0
45.6066 325.0
45.8906 219.0
46.1747 411.0
46.4588 658.0
46.7429 335.0
47.027 394.0
47.3111 445.0
47.5952 490.0
47.8793 548.0
48.1634 382.0
48.4475 400.0
48.7316 612.0
49.0156 547.0
49.2997 369.0
49.5838 455.0
49.8679 293.0
50.152 391.0
50.4361 348.0
50.7202 494.0
51.0043 347.0
51.2884 330.0
51.5725 311.0
51.8566 420.0
52.1407 551.0
52.4247 331.0
52.7088 317.0
52.9929 612.0
53.277 477.0
53.5611 516.0
53.8452 469.0
54.1293 741.0
54.4134 678.0
54.6975 340.0
54.9816 292.0
55.2657 456.0
55.5498 325.0
55.8338 410.0
56.1179 526.0
56.402 216.0
56.6861 301.0
56.9702 315.0
57.2543 354.0
57.5384 294.0
57.8225 338.0
58.1066 255.0
58.3907 370.0
58.6748 304.0
58.9589 269.0
59.2429 304.0
59.527 397.0
59.8111 475.0
60.0952 324.0
60.3793 259.0
60.6634 320.0
60.9475 688.0
61.2316 668.0
61.5157 340.0
61.7998 353.0
62.0839 410.0
62.368 451.0
62.652 529.0
62.9361 465.0
63.2202 287.0
63.5043 304.0
63.7884 326.0
64.0725 322.0
64.3566 313.0
64.6407 261.0
64.9248 227.0
65.2089 268.0
65.493 304.0
65.7771 378.0
66.0611 583.0
66.3452 406.0
66.6293 242.0
66.9134 302.0
67.1975 375.0
67.4816 277.0
67.7657 245.0
68.0498 228.0
68.3339 269.0
68.618 420.0
68.9021 380.0
69.1862 309.0
69.4702 293.0
69.7543 269.0
70.0384 302.0
70.3225 354.0
70.6066 497.0
70.8907 669.0
71.1748 491.0
71.4589 400.0
71.743 318.0
72.0271 430.0
72.3112 451.0
72.5952 600.0
72.8793 334.0
73.1634 248.0
73.4475 222.0
73.7316 238.0
74.0157 315.0
74.2998 313.0
74.5839 397.0
74.868 356.0
75.1521 368.0
75.4362 309.0
75.7203 315.0
76.0043 385.0
76.2884 248.0
76.5725 186.0
76.8566 246.0
77.1407 200.0
77.4248 209.0
77.7089 173.0
77.993 220.0
78.2771 252.0
78.5612 295.0
78.8453 279.0
79.1294 294.0
79.4134 293.0
79.6975 308.0
79.9816 260.0
80.2657 284.0
80.5498 276.0
80.8339 336.0
81.118 261.0
81.4021 215.0
81.6862 255.0
81.9703 186.0
82.2544 208.0
82.5385 246.0
82.8225 232.0
83.1066 196.0
83.3907 177.0
83.6748 153.0
83.9589 212.0
84.243 197.0
84.5271 138.0
84.8112 172.0
85.0953 203.0
85.3794 228.0
85.6635 166.0
85.9476 163.0
86.2316 190.0
86.5157 204.0
86.7998 214.0
87.0839 207.0
87.368 219.0
87.6521 192.0
87.9362 195.0
88.2203 195.0
88.5044 195.0
88.7885 146.0
89.0726 164.0
89.3567 158.0
89.6407 206.0
89.9248 161.0
89.9415 152.0

File: 20241028_SAPO-14-3-assynth-Probe-3.xy
4.98146 993.0
5.26555 909.0
5.54964 845.0
5.83373 931.0
6.11782 1205.0
6.40191 970.0
6.68601 725.0
6.9701 701.0
7.25419 688.0
7.53828 662.0
7.82237 647.0
8.10646 677.0
8.39055 717.0
8.67465 1309.0
8.95874 22242.0
9.24283 1094.0
9.52692 3489.0
9.81101 553.0
10.0951 487.0
10.3792 472.0
10.6633 482.0
10.9474 686.0
11.2315 2275.0
11.5156 497.0
11.7997 506.0
12.0837 488.0
12.3678 472.0
12.6519 496.0
12.936 1214.0
13.2201 755.0
13.5042 557.0
13.7883 426.0
14.0724 388.0
14.3565 313.0
14.6406 360.0
14.9247 379.0
15.2088 382.0
15.4928 369.0
15.7769 2730.0
16.061 953.0
16.3451 362.0
16.6292 336.0
16.9133 345.0
17.1974 333.0
17.4815 550.0
17.7656 662.0
18.0497 3722.0
18.3338 373.0
18.6179 406.0
18.9019 334.0
19.186 781.0
19.4701 268.0
19.7542 297.0
20.0383 285.0
20.3224 464.0
20.6065 1517.0
20.8906 3243.0
21.1747 321.0
21.4588 373.0
21.7429 2406.0
22.0269 930.0
22.311 3375.0
22.5951 5643.0
22.8792 4572.0
23.1633 639.0
23.4474 409.0
23.7315 403.0
24.0156 355.0
24.2997 346.0
24.5838 335.0
24.8679 344.0
25.152 708.0
25.436 1136.0
25.7201 548.0
26.0042 713.0
26.2883 3237.0
26.5724 658.0
26.8565 358.0
27.1406 1591.0
27.4247 375.0
27.7088 1392.0
27.9929 352.0
28.277 536.0
28.5611 409.0
28.8451 1300.0
29.1292 1576.0
29.4133 1251.0
29.6974 2339.0
29.9815 706.0
30.2656 1629.0
30.5497 1479.0
30.8338 4213.0
31.1179 1238.0
31.402 586.0
31.6861 322.0
31.9702 402.0
32.2542 891.0
32.5383 863.0
32.8224 382.0
33.1065 521.0
33.3906 535.0
33.6747 1340.0
33.9588 508.0
34.2429 383.0
34.527 307.0
34.8111 273.0
35.0952 893.0
35.3793 397.0
35.6633 1466.0
35.9474 424.0
36.2315 449.0
36.5156 1060.0
36.7997 433.0
37.0838 332.0
37.3679 427.0
37.652 236.0
37.9361 399.0
38.2202 288.0
38.5043 623.0
38.7884 362.0
39.0724 841.0
39.3565 592.0
39.6406 411.0
39.9247 320.0
40.2088 516.0
40.4929 813.0
40.777 513.0
41.0611 738.0
41.3452 185.0
41.6293 207.0
41.9134 223.0
42.1975 631.0
42.4815 576.0
42.7656 595.0
43.0497 342.0
43.3338 404.0
43.6179 219.0
43.902 302.0
44.1861 541.0
44.4702 638.0
44.7543 404.0
45.0384 568.0
45.3225 298.0
45.6066 333.0
45.8906 243.0
46.1747 464.0
46.4588 657.0
46.7429 370.0
47.027 393.0
47.3111 354.0
47.5952 375.0
47.8793 611.0
48.1634 417.0
48.4475 378.0
48.7316 512.0
49.0156 397.0
49.2997 362.0
49.5838 215.0
49.8679 275.0
50.152 355.0
50.4361 255.0
50.7202 233.0
51.0043 311.0
51.2884 307.0
51.5725 192.0
51.8566 453.0
52.1407 575.0
52.4247 369.0
52.7088 301.0
52.9929 424.0
53.277 336.0
53.5611 579.0
53.8452 501.0
54.1293 787.0
54.4134 598.0
54.6975 337.0
54.9816 309.0
55.2657 456.0
55.5498 285.0
55.8338 278.0
56.1179 502.0
56.402 230.0
56.6861 389.0
56.9702 300.0
57.2543 332.0
57.5384 297.0
57.8225 363.0
58.1066 291.0
58.3907 293.0
58.6748 320.0
58.9589 313.0
59.2429 313.0
59.527 371.0
59.8111 511.0
60.0952 387.0
60.3793 306.0
60.6634 328.0
60.9475 654.0
61.2316 628.0
61.5157 420.0
61.7998 354.0
62.0839 377.0
62.368 378.0
62.652 480.0
62.9361 465.0
63.2202 316.0
63.5043 295.0
63.7884 307.0
64.0725 318.0
64.3566 363.0
64.6407 227.0
64.9248 227.0
65.2089 279.0
65.493 233.0
65.7771 346.0
66.0611 455.0
66.3452 350.0
66.6293 247.0
66.9134 222.0
67.1975 254.0
67.4816 269.0
67.7657 252.0
68.0498 229.0
68.3339 245.0
68.618 384.0
68.9021 286.0
69.1862 232.0
69.4702 240.0
69.7543 198.0
70.0384 262.0
70.3225 330.0
70.6066 466.0
70.8907 495.0
71.1748 442.0
71.4589 331.0
71.743 299.0
72.0271 429.0
72.3112 416.0
72.5952 493.0
72.8793 355.0
73.1634 285.0
73.4475 164.0
73.7316 210.0
74.0157 292.0
74.2998 328.0
74.5839 362.0
74.868 337.0
75.1521 328.0
75.4362 322.0
75.7203 313.0
76.0043 319.0
76.2884 231.0
76.5725 207.0
76.8566 229.0
77.1407 199.0
77.4248 189.0
77.7089 169.0
77.993 173.0
78.2771 237.0
78.5612 268.0
78.8453 291.0
79.1294 284.0
79.4134 274.0
79.6975 282.0
79.9816 308.0
80.2657 289.0
80.5498 270.0
80.8339 284.0
81.118 266.0
81.4021 192.0
81.6862 221.0
81.9703 174.0
82.2544 196.0
82.5385 259.0
82.8225 225.0
83.1066 205.0
83.3907 172.0
83.6748 129.0
83.9589 170.0
84.243 189.0
84.5271 148.0
84.8112 180.0
85.0953 175.0
85.3794 189.0
85.6635 173.0
85.9476 172.0
86.2316 168.0
86.5157 219.0
86.7998 180.0
87.0839 173.0
87.368 197.0
87.6521 154.0
87.9362 174.0
88.2203 122.0
88.5044 165.0
88.7885 143.0
89.0726 161.0
89.3567 136.0
89.6407 175.0
89.9248 142.0
89.9415 175.0