Folder: bachelor_thesis/code/XRD_Analysis/Zeolites/data_files/SAPO-14/calc

Note: README.md
# bachelor_thesis
Hydrogensiation of CO2 to higher alcohols

File: 20241023_SAPO-14-3_calc_Probe-1.xy
4.98146 928.0
5.26555 880.0
5.54964 834.0
5.83373 790.0
6.11782 725.0
6.40191 755.0
6.68601 679.0
6.9701 662.0
7.25419 694.0
7.53828 664.0
7.82237 651.0
8.10646 679.0
8.39055 606.0
8.67465 926.0
8.95874 5169.0
9.24283 652.0
9.52692 600.0
9.81101 525.0
10.0951 502.0
10.3792 480.0
10.6633 549.0
10.9474 847.0
11.2315 1387.0
11.5156 520.0
11.7997 711.0
12.0837 1270.0
12.3678 445.0
12.6519 493.0
12.936 568.0
13.2201 4518.0
13.5042 819.0
13.7883 2747.0
14.0724 839.0
14.3565 561.0
14.6406 386.0
14.9247 355.0
15.2088 350.0
15.4928 1094.0
15.7769 475.0
16.061 388.0
16.3451 877.0
16.6292 524.0
16.9133 378.0
17.1974 333.0
17.4815 411.0
17.7656 637.0
18.0497 2389.0
18.3338 1244.0
18.6179 451.0
18.9019 646.0
19.186 573.0
19.4701 731.0
19.7542 1270.0
20.0383 503.0
20.3224 845.0
20.6065 1581.0
20.8906 842.0
21.1747 1323.0
21.4588 2070.0
21.7429 1833.0
22.0269 1834.0
22.311 701.0
22.5951 1134.0
22.8792 1178.0
23.1633 738.0
23.4474 938.0
23.7315 554.0
24.0156 522.0
24.2997 729.0
24.5838 401.0
24.8679 1236.0
25.152 555.0
25.436 696.0
25.7201 696.0
26.0042 663.0
26.2883 1214.0
26.5724 1921.0
26.8565 856.0
27.1406 2588.0
27.4247 3187.0
27.7088 1156.0
27.9929 720.0
28.277 467.0
28.5611 648.0
28.8451 721.0
29.1292 3662.0
29.4133 1113.0
29.6974 2022.0
29.9815 1451.0
30.2656 1220.0
30.5497 629.0
30.8338 1398.0
31.1179 982.0
31.402 588.0
31.6861 525.0
31.9702 1362.0
32.2542 686.0
32.5383 574.0
32.8224 762.0
33.1065 714.0
33.3906 735.0
33.6747 411.0
33.9588 417.0
34.2429 480.0
34.527 306.0
34.8111 275.0
35.0952 427.0
35.3793 467.0
35.6633 581.0
35.9474 442.0
36.2315 586.0
36.5156 531.0
36.7997 541.0
37.0838 433.0
37.3679 422.0
37.652 302.0
37.9361 269.0
38.2202 385.0
38.5043 338.0
38.7884 264.0
39.0724 328.0
39.3565 266.0
39.6406 334.0
39.9247 361.0
40.2088 369.0
40.4929 332.0
40.777 275.0
41.0611 289.0
41.3452 219.0
41.6293 275.0
41.9134 412.0
42.1975 380.0
42.4815 361.0
42.7656 289.0
43.0497 240.0
43.3338 290.0
43.6179 307.0
43.902 260.0
44.1861 294.0
44.4702 356.0
44.7543 269.0
45.0384 208.0
45.3225 247.0
45.6066 376.0
45.8906 310.0
46.1747 349.0
46.4588 230.0
46.7429 308.0
47.027 247.0
47.3111 322.0
47.5952 290.0
47.8793 287.0
48.1634 239.0
48.4475 246.0
48.7316 395.0
49.0156 358.0
49.2997 318.0
49.5838 300.0
49.8679 236.0
50.152 247.0
50.4361 212.0
50.7202 309.0
51.0043 326.0
51.2884 221.0
51.5725 349.0
51.8566 284.0
52.1407 255.0
52.4247 251.0
52.7088 292.0
52.9929 258.0
53.277 206.0
53.5611 262.0
53.8452 308.0
54.1293 241.0
54.4134 286.0
54.6975 262.0
54.9816 336.0
55.2657 317.0
55.5498 337.0
55.8338 379.0
56.1179 314.0
56.402 243.0
56.6861 282.0
56.9702 253.0
57.2543 297.0
57.5384 275.0
57.8225 294.0
58.1066 236.0
58.3907 240.0
58.6748 258.0
58.9589 163.0
59.2429 268.0
59.527 260.0
59.8111 268.0
60.0952 246.0
60.3793 264.0
60.6634 248.0
60.9475 248.0
61.2316 209.0
61.5157 209.0
61.7998 209.0
62.0839 216.0
62.368 222.0
62.652 174.0
62.9361 211.0
63.2202 196.0
63.5043 252.0
63.7884 227.0
64.0725 222.0
64.3566 184.0
64.6407 203.0
64.9248 216.0
65.2089 257.0
65.493 220.0
65.7771 256.0
66.0611 226.0
66.3452 216.0
66.6293 226.0
66.9134 215.0
67.1975 263.0
67.4816 259.0
67.7657 239.0
68.0498 208.0
68.3339 198.0
68.618 244.0
68.9021 206.0
69.1862 193.0
69.4702 185.0
69.7543 239.0
70.0384 226.0
70.3225 260.0
70.6066 238.0
70.8907 242.0
71.1748 211.0
71.4589 201.0
71.743 208.0
72.0271 190.0
72.3112 183.0
72.5952 165.0
72.8793 172.0
73.1634 193.0
73.4475 174.0
73.7316 160.0
74.0157 184.0
74.2998 192.0
74.5839 211.0
74.868 190.0
75.1521 184.0
75.4362 183.0
75.7203 183.0
76.0043 192.0
76.2884 160.0
76.5725 143.0
76.8566 167.0
77.1407 192.0
77.4248 207.0
77.7089 178.0
77.993 191.0
78.2771 196.0
78.5612 179.0
78.8453 155.0
79.1294 157.0
79.4134 158.0
79.6975 172.0
79.9816 158.0
80.2657 161.0
80.5498 147.0
80.8339 155.0
81.118 131.0
81.4021 147.0
81.6862 152.0
81.9703 163.0
82.2544 125.0
82.5385 152.0
82.8225 158.0
83.1066 136.0
83.3907 117.0
83.6748 119.0
83.9589 149.0
84.243 133.0
84.5271 125.0
84.8112 128.0
85.0953 122.0
85.3794 143.0
85.6635 132.0
85.9476 119.0
86.2316 118.0
86.5157 148.0
86.7998 130.0
87.0839 115.0
87.368 128.0
87.6521 107.0
87.9362 106.0
88.2203 114.0
88.5044 99.0
88.7885 103.0
89.0726 122.0
89.3567 112.0
89.6407 97.0
89.9248 134.0
89.9415 113.0

File: 20241028_SAPO-14-3-calc-Probe-3.xy
4.98146 961.0
5.26555 898.0
5.54964 859.0
5.83373 814.0
6.11782 783.0
6.40191 746.0
6.68601 688.0
6.9701 783.0
7.25419 670.0
7.53828 630.0
7.82237 661.0
8.10646 634.0
8.39055 673.0
8.67465 986.0
8.95874 5129.0
9.24283 653.0
9.52692 1905.0
9.81101 574.0
10.0951 514.0
10.3792 487.0
10.6633 453.0
10.9474 697.0
11.2315 1379.0
11.5156 554.0
11.7997 753.0
12.0837 731.0
12.3678 460.0
12.6519 486.0
12.936 750.0
13.2201 2717.0
13.5042 808.0
13.7883 1588.0
14.0724 922.0
14.3565 568.0
14.6406 448.0
14.9247 430.0
15.2088 424.0
15.4928 888.0
15.7769 585.0
16.061 516.0
16.3451 738.0
16.6292 516.0
16.9133 387.0
17.1974 442.0
17.4815 526.0
17.7656 734.0
18.0497 2616.0
18.3338 1088.0
18.6179 532.0
18.9019 799.0
19.186 586.0
19.4701 791.0
19.7542 1246.0
20.0383 512.0
20.3224 518.0
20.6065 1216.0
20.8906 787.0
21.1747 1150.0
21.4588 1484.0
21.7429 1399.0
22.0269 2081.0
22.311 887.0
22.5951 1314.0
22.8792 821.0
23.1633 744.0
23.4474 1003.0
23.7315 604.0
24.0156 672.0
24.2997 705.0
24.5838 545.0
24.8679 1173.0
25.152 803.0
25.436 805.0
25.7201 768.0
26.0042 722.0
26.2883 1067.0
26.5724 2108.0
26.8565 1057.0
27.1406 2658.0
27.4247 2963.0
27.7088 1273.0
27.9929 763.0
28.277 635.0
28.5611 832.0
28.8451 844.0
29.1292 3309.0
29.4133 1214.0
29.6974 2344.0
29.9815 1778.0
30.2656 1395.0
30.5497 797.0
30.8338 1933.0
31.1179 901.0
31.402 700.0
31.6861 636.0
31.9702 1170.0
32.2542 781.0
32.5383 664.0
32.8224 838.0
33.1065 724.0
33.3906 907.0
33.6747 548.0
33.9588 592.0
34.2429 563.0
34.527 404.0
34.8111 382.0
35.0952 425.0
35.3793 479.0
35.6633 635.0
35.9474 590.0
36.2315 611.0
36.5156 719.0
36.7997 618.0
37.0838 507.0
37.3679 453.0
37.652 367.0
37.9361 355.0
38.2202 417.0
38.5043 348.0
38.7884 349.0
39.0724 365.0
39.3565 329.0
39.6406 341.0
39.9247 472.0
40.2088 471.0
40.4929 349.0
40.777 404.0
41.0611 306.0
41.3452 294.0
41.6293 335.0
41.9134 438.0
42.1975 409.0
42.4815 372.0
42.7656 336.0
43.0497 252.0
43.3338 326.0
43.6179 383.0
43.902 349.0
44.1861 379.0
44.4702 423.0
44.7543 383.0
45.0384 276.0
45.3225 357.0
45.6066 409.0
45.8906 325.0
46.1747 432.0
46.4588 356.0
46.7429 381.0
47.027 302.0
47.3111 400.0
47.5952 382.0
47.8793 408.0
48.1634 317.0
48.4475 347.0
48.7316 447.0
49.0156 429.0
49.2997 395.0
49.5838 401.0
49.8679 333.0
50.152 298.0
50.4361 283.0
50.7202 397.0
51.0043 400.0
51.2884 347.0
51.5725 346.0
51.8566 324.0
52.1407 338.0
52.4247 326.0
52.7088 395.0
52.9929 297.0
53.277 273.0
53.5611 385.0
53.8452 410.0
54.1293 319.0
54.4134 293.0
54.6975 363.0
54.9816 453.0
55.2657 413.0
55.5498 393.0
55.8338 414.0
56.1179 455.0
56.402 307.0
56.6861 348.0
56.9702 304.0
57.2543 352.0
57.5384 385.0
57.8225 348.0
58.1066 330.0
58.3907 298.0
58.6748 302.0
58.9589 257.0
59.2429 351.0
59.527 285.0
59.8111 301.0
60.0952 323.0
60.3793 357.0
60.6634 368.0
60.9475 332.0
61.2316 282.0
61.5157 232.0
61.7998 245.0
62.0839 266.0
62.368 302.0
62.652 320.0
62.9361 273.0
63.2202 273.0
63.5043 269.0
63.7884 278.0
64.0725 291.0
64.3566 279.0
64.6407 267.0
64.9248 314.0
65.2089 307.0
65.493 311.0
65.7771 329.0
66.0611 308.0
66.3452 289.0
66.6293 290.0
66.9134 294.0
67.1975 386.0
67.4816 357.0
67.7657 307.0
68.0498 278.0
68.3339 283.0
68.618 279.0
68.9021 279.0
69.1862 266.0
69.4702 219.0
69.7543 256.0
70.0384 299.0
70.3225 307.0
70.6066 315.0
70.8907 264.0
71.1748 222.0
71.4589 275.0
71.743 250.0
72.0271 257.0
72.3112 216.0
72.5952 228.0
72.8793 232.0
73.1634 256.0
73.4475 261.0
73.7316 241.0
74.0157 238.0
74.2998 255.0
74.5839 232.0
74.868 238.0
75.1521 252.0
75.4362 263.0
75.7203 244.0
76.0043 243.0
76.2884 248.0
76.5725 186.0
76.8566 215.0
77.1407 263.0
77.4248 236.0
77.7089 255.0
77.993 235.0
78.2771 213.0
78.5612 204.0
78.8453 215.0
79.1294 210.0
79.4134 203.0
79.6975 208.0
79.9816 212.0
80.2657 209.0
80.5498 173.0
80.8339 186.0
81.118 186.0
81.4021 182.0
81.6862 186.0
81.9703 186.0
82.2544 184.0
82.5385 188.0
82.8225 179.0
83.1066 190.0
83.3907 155.0
83.6748 160.0
83.9589 173.0
84.243 177.0
84.5271 139.0
84.8112 169.0
85.0953 159.0
85.3794 162.0
85.6635 148.0
85.9476 158.0
86.2316 186.0
86.5157 148.0
86.7998 150.0
87.0839 145.0
87.368 133.0
87.6521 146.0
87.9362 129.0
88.2203 145.0
88.5044 149.0
88.7885 130.0
89.0726 141.0
89.3567 151.0
89.6407 137.0
89.9248 142.0
89.9415 123.0

File: 20241105_SAPO-14-4_calc_Probe-2.xy
4.98146 1026.0
5.26555 926.0
5.54964 875.0
5.83373 801.0
6.11782 734.0
6.40191 709.0
6.68601 678.0
6.9701 659.0
7.25419 662.0
7.53828 710.0
7.82237 743.0
8.10646 605.0
8.39055 638.0
8.67465 714.0
8.95874 11470.0
9.24283 872.0
9.52692 1894.0
9.81101 504.0
10.0951 466.0
10.3792 504.0
10.6633 480.0
10.9474 910.0
11.2315 1576.0
11.5156 411.0
11.7997 505.0
12.0837 882.0
12.3678 478.0
12.6519 459.0
12.936 1009.0
13.2201 3312.0
13.5042 695.0
13.7883 1806.0
14.0724 1162.0
14.3565 576.0
14.6406 396.0
14.9247 363.0
15.2088 325.0
15.4928 493.0
15.7769 477.0
16.061 512.0
16.3451 1035.0
16.6292 545.0
16.9133 332.0
17.1974 332.0
17.4815 432.0
17.7656 618.0
18.0497 6695.0
18.3338 1492.0
18.6179 411.0
18.9019 470.0
19.186 633.0
19.4701 443.0
19.7542 1823.0
20.0383 451.0
20.3224 555.0
20.6065 2018.0
20.8906 725.0
21.1747 1297.0
21.4588 2031.0
21.7429 1447.0
22.0269 2150.0
22.311 877.0
22.5951 1541.0
22.8792 669.0
23.1633 748.0
23.4474 842.0
23.7315 505.0
24.0156 631.0
24.2997 553.0
24.5838 387.0
24.8679 637.0
25.152 849.0
25.436 807.0
25.7201 567.0
26.0042 805.0
26.2883 552.0
26.5724 1659.0
26.8565 910.0
27.1406 684.0
27.4247 6718.0
27.7088 1310.0
27.9929 594.0
28.277 510.0
28.5611 572.0
28.8451 644.0
29.1292 2615.0
29.4133 840.0
29.6974 665.0
29.9815 2674.0
30.2656 1021.0
30.5497 614.0
30.8338 1846.0
31.1179 1032.0
31.402 528.0
31.6861 526.0
31.9702 401.0
32.2542 954.0
32.5383 521.0
32.8224 368.0
33.1065 667.0
33.3906 318.0
33.6747 813.0
33.9588 442.0
34.2429 513.0
34.527 244.0
34.8111 297.0
35.0952 282.0
35.3793 422.0
35.6633 561.0
35.9474 518.0
36.2315 425.0
36.5156 453.0
36.7997 854.0
37.0838 372.0
37.3679 275.0
37.652 397.0
37.9361 221.0
38.2202 304.0
38.5043 284.0
38.7884 276.0
39.0724 295.0
39.3565 276.0
39.6406 320.0
39.9247 378.0
40.2088 500.0
40.4929 268.0
40.777 294.0
41.0611 245.0
41.3452 232.0
41.6293 248.0
41.9134 412.0
42.1975 285.0
42.4815 262.0
42.7656 288.0
43.0497 195.0
43.3338 224.0
43.6179 272.0
43.902 332.0
44.1861 272.0
44.4702 280.0
44.7543 241.0
45.0384 263.0
45.3225 227.0
45.6066 259.0
45.8906 372.0
46.1747 396.0
46.4588 297.0
46.7429 253.0
47.027 213.0
47.3111 222.0
47.5952 233.0
47.8793 480.0
48.1634 239.0
48.4475 247.0
48.7316 308.0
49.0156 319.0
49.2997 307.0
49.5838 266.0
49.8679 199.0
50.152 261.0
50.4361 176.0
50.7202 239.0
51.0043 335.0
51.2884 262.0
51.5725 201.0
51.8566 241.0
52.1407 315.0
52.4247 220.0
52.7088 226.0
52.9929 279.0
53.277 224.0
53.5611 248.0
53.8452 260.0
54.1293 294.0
54.4134 209.0
54.6975 236.0
54.9816 361.0
55.2657 233.0
55.5498 290.0
55.8338 314.0
56.1179 264.0
56.402 345.0
56.6861 272.0
56.9702 246.0
57.2543 243.0
57.5384 239.0
57.8225 245.0
58.1066 259.0
58.3907 225.0
58.6748 253.0
58.9589 211.0
59.2429 227.0
59.527 239.0
59.8111 220.0
60.0952 219.0
60.3793 256.0
60.6634 272.0
60.9475 220.0
61.2316 252.0
61.5157 199.0
61.7998 170.0
62.0839 165.0
62.368 192.0
62.652 200.0
62.9361 236.0
63.2202 172.0
63.5043 167.0
63.7884 228.0
64.0725 198.0
64.3566 181.0
64.6407 237.0
64.9248 252.0
65.2089 191.0
65.493 257.0
65.7771 231.0
66.0611 251.0
66.3452 228.0
66.6293 214.0
66.9134 222.0
67.1975 236.0
67.4816 251.0
67.7657 238.0
68.0498 213.0
68.3339 237.0
68.618 195.0
68.9021 190.0
69.1862 190.0
69.4702 155.0
69.7543 166.0
70.0384 170.0
70.3225 223.0
70.6066 217.0
70.8907 223.0
71.1748 233.0
71.4589 207.0
71.743 200.0
72.0271 193.0
72.3112 170.0
72.5952 186.0
72.8793 195.0
73.1634 181.0
73.4475 146.0
73.7316 178.0
74.0157 205.0
74.2998 179.0
74.5839 174.0
74.868 205.0
75.1521 186.0
75.4362 177.0
75.7203 180.0
76.0043 180.0
76.2884 179.0
76.5725 183.0
76.8566 176.0
77.1407 189.0
77.4248 145.0
77.7089 190.0
77.993 174.0
78.2771 159.0
78.5612 154.0
78.8453 146.0
79.1294 152.0
79.4134 147.0
79.6975 123.0
79.9816 122.0
80.2657 130.0
80.5498 143.0
80.8339 122.0
81.118 119.0
81.4021 158.0
81.6862 134.0
81.9703 134.0
82.2544 129.0
82.5385 133.0
82.8225 120.0
83.1066 142.0
83.3907 121.0
83.6748 132.0
83.9589 142.0
84.243 101.0
84.5271 129.0
84.8112 141.0
85.0953 143.0
85.3794 123.0
85.6635 134.0
85.9476 118.0
86.2316 121.0
86.5157 121.0
86.7998 131.0
87.0839 110.0
87.368 118.0
87.6521 120.0
87.9362 113.0
88.2203 118.0
88.5044 102.0
88.7885 117.0
89.0726 117.0
89.3567 95.0
89.6407 104.0
89.9248 120.0
89.9415 113.0

File: 20241105_SAPO-14-4_calc_Probe-3.xy
4.98146 960.0
5.26555 946.0
5.54964 834.0
5.83373 824.0
6.11782 760.0
6.40191 740.0
6.68601 708.0
6.9701 691.0
7.25419 667.0
7.53828 631.0
7.82237 664.0
8.10646 614.0
8.39055 656.0
8.67465 715.0
8.95874 3204.0
9.24283 724.0
9.52692 8456.0
9.81101 621.0
10.0951 541.0
10.3792 564.0
10.6633 549.0
10.9474 602.0
11.2315 1128.0
11.5156 483.0
11.7997 505.0
12.0837 959.0
12.3678 493.0
12.6519 543.0
12.936 2881.0
13.2201 3538.0
13.5042 583.0
13.7883 2141.0
14.0724 1063.0
14.3565 511.0
14.6406 473.0
14.9247 428.0
15.2088 477.0
15.4928 451.0
15.7769 657.0
16.061 982.0
16.3451 838.0
16.6292 534.0
16.9133 479.0
17.1974 466.0
17.4815 512.0
17.7656 1275.0
18.0497 2453.0
18.3338 918.0
18.6179 491.0
18.9019 525.0
19.186 1049.0
19.4701 540.0
19.7542 1660.0
20.0383 597.0
20.3224 750.0
20.6065 1853.0
20.8906 2431.0
21.1747 1362.0
21.4588 1532.0
21.7429 900.0
22.0269 1643.0
22.311 836.0
22.5951 1105.0
22.8792 746.0
23.1633 1000.0
23.4474 1132.0
23.7315 698.0
24.0156 685.0
24.2997 748.0
24.5838 620.0
24.8679 861.0
25.152 2516.0
25.436 894.0
25.7201 766.0
26.0042 1082.0
26.2883 1232.0
26.5724 1537.0
26.8565 1106.0
27.1406 820.0
27.4247 3527.0
27.7088 1337.0
27.9929 1000.0
28.277 1064.0
28.5611 850.0
28.8451 823.0
29.1292 1503.0
29.4133 833.0
29.6974 735.0
29.9815 2412.0
30.2656 1347.0
30.5497 875.0
30.8338 2561.0
31.1179 1906.0
31.402 1703.0
31.6861 798.0
31.9702 760.0
32.2542 1085.0
32.5383 675.0
32.8224 570.0
33.1065 894.0
33.3906 521.0
33.6747 1043.0
33.9588 517.0
34.2429 618.0
34.527 448.0
34.8111 770.0
35.0952 470.0
35.3793 610.0
35.6633 610.0
35.9474 474.0
36.2315 759.0
36.5156 502.0
36.7997 824.0
37.0838 469.0
37.3679 370.0
37.652 471.0
37.9361 364.0
38.2202 427.0
38.5043 379.0
38.7884 401.0
39.0724 416.0
39.3565 376.0
39.6406 469.0
39.9247 431.0
40.2088 580.0
40.4929 394.0
40.777 417.0
41.0611 401.0
41.3452 308.0
41.6293 358.0
41.9134 433.0
42.1975 377.0
42.4815 430.0
42.7656 403.0
43.0497 381.0
43.3338 357.0
43.6179 393.0
43.902 532.0
44.1861 373.0
44.4702 456.0
44.7543 352.0
45.0384 418.0
45.3225 346.0
45.6066 393.0
45.8906 436.0
46.1747 385.0
46.4588 367.0
46.7429 384.0
47.027 370.0
47.3111 323.0
47.5952 346.0
47.8793 447.0
48.1634 416.0
48.4475 381.0
48.7316 431.0
49.0156 393.0
49.2997 587.0
49.5838 458.0
49.8679 407.0
50.152 406.0
50.4361 319.0
50.7202 393.0
51.0043 457.0
51.2884 493.0
51.5725 378.0
51.8566 388.0
52.1407 429.0
52.4247 398.0
52.7088 419.0
52.9929 371.0
53.277 367.0
53.5611 384.0
53.8452 429.0
54.1293 404.0
54.4134 375.0
54.6975 382.0
54.9816 430.0
55.2657 404.0
55.5498 398.0
55.8338 456.0
56.1179 382.0
56.402 472.0
56.6861 420.0
56.9702 366.0
57.2543 349.0
57.5384 382.0
57.8225 353.0
58.1066 376.0
58.3907 353.0
58.6748 336.0
58.9589 322.0
59.2429 321.0
59.527 321.0
59.8111 352.0
60.0952 355.0
60.3793 352.0
60.6634 354.0
60.9475 351.0
61.2316 348.0
61.5157 293.0
61.7998 324.0
62.0839 338.0
62.368 324.0
62.652 263.0
62.9361 341.0
63.2202 263.0
63.5043 278.0
63.7884 299.0
64.0725 291.0
64.3566 301.0
64.6407 301.0
64.9248 321.0
65.2089 302.0
65.493 306.0
65.7771 339.0
66.0611 317.0
66.3452 298.0
66.6293 338.0
66.9134 365.0
67.1975 355.0
67.4816 389.0
67.7657 331.0
68.0498 358.0
68.3339 263.0
68.618 347.0
68.9021 260.0
69.1862 284.0
69.4702 284.0
69.7543 287.0
70.0384 302.0
70.3225 369.0
70.6066 307.0
70.8907 294.0
71.1748 362.0
71.4589 291.0
71.743 325.0
72.0271 298.0
72.3112 290.0
72.5952 274.0
72.8793 289.0
73.1634 270.0
73.4475 260.0
73.7316 270.0
74.0157 262.0
74.2998 287.0
74.5839 241.0
74.868 278.0
75.1521 280.0
75.4362 279.0
75.7203 262.0
76.0043 275.0
76.2884 261.0
76.5725 256.0
76.8566 250.0
77.1407 268.0
77.4248 241.0
77.7089 252.0
77.993 244.0
78.2771 240.0
78.5612 264.0
78.8453 259.0
79.1294 238.0
79.4134 237.0
79.6975 235.0
79.9816 219.0
80.2657 222.0
80.5498 200.0
80.8339 181.0
81.118 204.0
81.4021 219.0
81.6862 186.0
81.9703 211.0
82.2544 214.0
82.5385 184.0
82.8225 158.0
83.1066 213.0
83.3907 207.0
83.6748 165.0
83.9589 193.0
84.243 165.0
84.5271 165.0
84.8112 191.0
85.0953 193.0
85.3794 161.0
85.6635 185.0
85.9476 172.0
86.2316 170.0
86.5157 195.0
86.7998 169.0
87.0839 164.0
87.368 175.0
87.6521 147.0
87.9362 160.0
88.2203 141.0
88.5044 158.0
88.7885 167.0
89.0726 164.0
89.3567 165.0
89.6407 141.0
89.9248 132.0
89.9415 151.0

File: 20241105_SAPO-14-4_calc_Probe-4.xy
4.98146 947.0
5.26555 925.0
5.54964 844.0
5.83373 804.0
6.11782 795.0
6.40191 682.0
6.68601 703.0
6.9701 694.0
7.25419 654.0
7.53828 646.0
7.82237 631.0
8.10646 1085.0
8.39055 668.0
8.67465 518.0
8.95874 560.0
9.24283 566.0
9.52692 2283.0
9.81101 938.0
10.0951 472.0
10.3792 429.0
10.6633 474.0
10.9474 472.0
11.2315 455.0
11.5156 410.0
11.7997 417.0
12.0837 351.0
12.3678 389.0
12.6519 424.0
12.936 1095.0
13.2201 776.0
13.5042 389.0
13.7883 361.0
14.0724 490.0
14.3565 310.0
14.6406 361.0
14.9247 354.0
15.2088 383.0
15.4928 414.0
15.7769 1142.0
16.061 920.0
16.3451 554.0
16.6292 369.0
16.9133 381.0
17.1974 369.0
17.4815 344.0
17.7656 631.0
18.0497 583.0
18.3338 397.0
18.6179 371.0
18.9019 381.0
19.186 569.0
19.4701 463.0
19.7542 503.0
20.0383 574.0
20.3224 1710.0
20.6065 913.0
20.8906 1984.0
21.1747 2196.0
21.4588 2103.0
21.7429 864.0
22.0269 970.0
22.311 2599.0
22.5951 1710.0
22.8792 1665.0
23.1633 1975.0
23.4474 2524.0
23.7315 789.0
24.0156 581.0
24.2997 658.0
24.5838 705.0
24.8679 758.0
25.152 1546.0
25.436 665.0
25.7201 599.0
26.0042 738.0
26.2883 1595.0
26.5724 1286.0
26.8565 801.0
27.1406 676.0
27.4247 632.0
27.7088 677.0
27.9929 850.0
28.277 850.0
28.5611 674.0
28.8451 766.0
29.1292 1258.0
29.4133 745.0
29.6974 841.0
29.9815 668.0
30.2656 606.0
30.5497 633.0
30.8338 1638.0
31.1179 1177.0
31.402 1187.0
31.6861 740.0
31.9702 855.0
32.2542 551.0
32.5383 606.0
32.8224 967.0
33.1065 758.0
33.3906 526.0
33.6747 615.0
33.9588 503.0
34.2429 528.0
34.527 507.0
34.8111 917.0
35.0952 523.0
35.3793 500.0
35.6633 502.0
35.9474 466.0
36.2315 751.0
36.5156 598.0
36.7997 413.0
37.0838 426.0
37.3679 474.0
37.652 483.0
37.9361 736.0
38.2202 642.0
38.5043 571.0
38.7884 441.0
39.0724 367.0
39.3565 454.0
39.6406 453.0
39.9247 411.0
40.2088 444.0
40.4929 395.0
40.777 375.0
41.0611 387.0
41.3452 402.0
41.6293 384.0
41.9134 408.0
42.1975 398.0
42.4815 363.0
42.7656 408.0
43.0497 459.0
43.3338 500.0
43.6179 417.0
43.902 450.0
44.1861 380.0
44.4702 385.0
44.7543 428.0
45.0384 500.0
45.3225 458.0
45.6066 402.0
45.8906 342.0
46.1747 376.0
46.4588 363.0
46.7429 336.0
47.027 365.0
47.3111 368.0
47.5952 321.0
47.8793 369.0
48.1634 453.0
48.4475 510.0
48.7316 398.0
49.0156 404.0
49.2997 559.0
49.5838 478.0
49.8679 431.0
50.152 417.0
50.4361 383.0
50.7202 330.0
51.0043 449.0
51.2884 487.0
51.5725 471.0
51.8566 362.0
52.1407 375.0
52.4247 428.0
52.7088 396.0
52.9929 353.0
53.277 428.0
53.5611 337.0
53.8452 432.0
54.1293 403.0
54.4134 365.0
54.6975 408.0
54.9816 424.0
55.2657 410.0
55.5498 451.0
55.8338 384.0
56.1179 357.0
56.402 425.0
56.6861 448.0
56.9702 415.0
57.2543 376.0
57.5384 381.0
57.8225 395.0
58.1066 505.0
58.3907 476.0
58.6748 420.0
58.9589 512.0
59.2429 490.0
59.527 409.0
59.8111 373.0
60.0952 440.0
60.3793 387.0
60.6634 388.0
60.9475 369.0
61.2316 358.0
61.5157 364.0
61.7998 395.0
62.0839 383.0
62.368 382.0
62.652 345.0
62.9361 383.0
63.2202 331.0
63.5043 347.0
63.7884 377.0
64.0725 388.0
64.3566 340.0
64.6407 333.0
64.9248 323.0
65.2089 362.0
65.493 365.0
65.7771 355.0
66.0611 364.0
66.3452 379.0
66.6293 415.0
66.9134 400.0
67.1975 378.0
67.4816 346.0
67.7657 344.0
68.0498 326.0
68.3339 378.0
68.618 299.0
68.9021 309.0
69.1862 314.0
69.4702 357.0
69.7543 381.0
70.0384 341.0
70.3225 340.0
70.6066 339.0
70.8907 321.0
71.1748 347.0
71.4589 341.0
71.743 330.0
72.0271 370.0
72.3112 331.0
72.5952 394.0
72.8793 336.0
73.1634 400.0
73.4475 333.0
73.7316 326.0
74.0157 305.0
74.2998 345.0
74.5839 304.0
74.868 310.0
75.1521 323.0
75.4362 326.0
75.7203 338.0
76.0043 333.0
76.2884 349.0
76.5725 349.0
76.8566 319.0
77.1407 306.0
77.4248 317.0
77.7089 308.0
77.993 306.0
78.2771 298.0
78.5612 331.0
78.8453 328.0
79.1294 291.0
79.4134 280.0
79.6975 244.0
79.9816 332.0
80.2657 320.0
80.5498 251.0
80.8339 291.0
81.118 320.0
81.4021 274.0
81.6862 263.0
81.9703 282.0
82.2544 255.0
82.5385 286.0
82.8225 261.0
83.1066 254.0
83.3907 252.0
83.6748 211.0
83.9589 230.0
84.243 219.0
84.5271 227.0
84.8112 230.0
85.0953 214.0
85.3794 205.0
85.6635 191.0
85.9476 179.0
86.2316 206.0
86.5157 206.0
86.7998 190.0
87.0839 197.0
87.368 188.0
87.6521 185.0
87.9362 168.0
88.2203 183.0
88.5044 164.0
88.7885 192.0
89.0726 196.0
89.3567 189.0
89.6407 195.0
89.9248 200.0
89.9415 181.0

File: 20241113_SAPO-14-4_calc_Probe-1.xy
4.98146 937.0
5.26555 895.0
5.54964 879.0
5.83373 815.0
6.11782 814.0
6.40191 667.0
6.68601 761.0
6.9701 672.0
7.25419 654.0
7.53828 631.0
7.82237 578.0
8.10646 598.0
8.39055 557.0
8.67465 744.0
8.95874 4729.0
9.24283 800.0
9.52692 853.0
9.81101 494.0
10.0951 495.0
10.3792 455.0
10.6633 434.0
10.9474 622.0
11.2315 1191.0
11.5156 464.0
11.7997 502.0
12.0837 2143.0
12.3678 357.0
12.6519 392.0
12.936 419.0
13.2201 4582.0
13.5042 522.0
13.7883 5104.0
14.0724 877.0
14.3565 741.0
14.6406 424.0
14.9247 316.0
15.2088 336.0
15.4928 319.0
15.7769 1263.0
16.061 356.0
16.3451 770.0
16.6292 454.0
16.9133 332.0
17.1974 318.0
17.4815 361.0
17.7656 430.0
18.0497 3890.0
18.3338 1588.0
18.6179 545.0
18.9019 448.0
19.186 845.0
19.4701 440.0
19.7542 1791.0
20.0383 439.0
20.3224 457.0
20.6065 1594.0
20.8906 609.0
21.1747 2204.0
21.4588 1647.0
21.7429 1196.0
22.0269 3026.0
22.311 1159.0
22.5951 1026.0
22.8792 1034.0
23.1633 556.0
23.4474 1611.0
23.7315 619.0
24.0156 566.0
24.2997 774.0
24.5838 446.0
24.8679 607.0
25.152 940.0
25.436 783.0
25.7201 604.0
26.0042 825.0
26.2883 573.0
26.5724 2715.0
26.8565 1662.0
27.1406 947.0
27.4247 6063.0
27.7088 2134.0
27.9929 648.0
28.277 746.0
28.5611 674.0
28.8451 1072.0
29.1292 1172.0
29.4133 1772.0
29.6974 778.0
29.9815 3907.0
30.2656 1953.0
30.5497 870.0
30.8338 1607.0
31.1179 1804.0
31.402 634.0
31.6861 877.0
31.9702 565.0
32.2542 1820.0
32.5383 835.0
32.8224 544.0
33.1065 1466.0
33.3906 509.0
33.6747 1125.0
33.9588 603.0
34.2429 707.0
34.527 426.0
34.8111 431.0
35.0952 367.0
35.3793 631.0
35.6633 710.0
35.9474 572.0
36.2315 849.0
36.5156 538.0
36.7997 1117.0
37.0838 547.0
37.3679 418.0
37.652 576.0
37.9361 373.0
38.2202 391.0
38.5043 386.0
38.7884 384.0
39.0724 472.0
39.3565 431.0
39.6406 440.0
39.9247 586.0
40.2088 763.0
40.4929 391.0
40.777 425.0
41.0611 358.0
41.3452 333.0
41.6293 328.0
41.9134 549.0
42.1975 415.0
42.4815 524.0
42.7656 400.0
43.0497 329.0
43.3338 329.0
43.6179 430.0
43.902 571.0
44.1861 424.0
44.4702 450.0
44.7543 429.0
45.0384 420.0
45.3225 369.0
45.6066 428.0
45.8906 548.0
46.1747 472.0
46.4588 533.0
46.7429 449.0
47.027 404.0
47.3111 325.0
47.5952 383.0
47.8793 588.0
48.1634 535.0
48.4475 373.0
48.7316 435.0
49.0156 563.0
49.2997 506.0
49.5838 472.0
49.8679 366.0
50.152 371.0
50.4361 384.0
50.7202 356.0
51.0043 447.0
51.2884 460.0
51.5725 395.0
51.8566 407.0
52.1407 429.0
52.4247 425.0
52.7088 385.0
52.9929 447.0
53.277 380.0
53.5611 392.0
53.8452 443.0
54.1293 460.0
54.4134 350.0
54.6975 378.0
54.9816 589.0
55.2657 549.0
55.5498 539.0
55.8338 573.0
56.1179 447.0
56.402 584.0
56.6861 425.0
56.9702 447.0
57.2543 371.0
57.5384 414.0
57.8225 496.0
58.1066 450.0
58.3907 400.0
58.6748 423.0
58.9589 365.0
59.2429 311.0
59.527 366.0
59.8111 366.0
60.0952 345.0
60.3793 458.0
60.6634 526.0
60.9475 427.0
61.2316 386.0
61.5157 332.0
61.7998 326.0
62.0839 309.0
62.368 321.0
62.652 347.0
62.9361 348.0
63.2202 278.0
63.5043 295.0
63.7884 315.0
64.0725 384.0
64.3566 329.0
64.6407 323.0
64.9248 357.0
65.2089 342.0
65.493 418.0
65.7771 385.0
66.0611 357.0
66.3452 391.0
66.6293 389.0
66.9134 340.0
67.1975 397.0
67.4816 438.0
67.7657 428.0
68.0498 326.0
68.3339 370.0
68.618 358.0
68.9021 323.0
69.1862 322.0
69.4702 289.0
69.7543 297.0
70.0384 303.0
70.3225 376.0
70.6066 384.0
70.8907 428.0
71.1748 335.0
71.4589 300.0
71.743 314.0
72.0271 328.0
72.3112 261.0
72.5952 307.0
72.8793 284.0
73.1634 291.0
73.4475 274.0
73.7316 319.0
74.0157 304.0
74.2998 290.0
74.5839 272.0
74.868 341.0
75.1521 333.0
75.4362 282.0
75.7203 306.0
76.0043 322.0
76.2884 336.0
76.5725 266.0
76.8566 282.0
77.1407 274.0
77.4248 279.0
77.7089 282.0
77.993 356.0
78.2771 277.0
78.5612 271.0
78.8453 271.0
79.1294 271.0
79.4134 251.0
79.6975 213.0
79.9816 280.0
80.2657 237.0
80.5498 247.0
80.8339 235.0
81.118 261.0
81.4021 233.0
81.6862 217.0
81.9703 246.0
82.2544 261.0
82.5385 213.0
82.8225 212.0
83.1066 226.0
83.3907 204.0
83.6748 192.0
83.9589 190.0
84.243 193.0
84.5271 179.0
84.8112 191.0
85.0953 241.0
85.3794 223.0
85.6635 222.0
85.9476 209.0
86.2316 209.0
86.5157 217.0
86.7998 198.0
87.0839 204.0
87.368 172.0
87.6521 192.0
87.9362 166.0
88.2203 182.0
88.5044 175.0
88.7885 182.0
89.0726 181.0
89.3567 162.0
89.6407 178.0
89.9248 178.0
89.9415 178.0