Folder: bachelor_thesis/code/XRD_Analysis/External Sources/Alex_SAPO (part 2)

File: 20220704_SAPO-34_80_220627_calc650C20h.xy
4.98146 1425.0
5.26555 1347.0
5.54964 1302.0
5.83373 1239.0
6.11782 1189.0
6.40191 1093.0
6.68601 1033.0
6.9701 1031.0
7.25419 959.0
7.53828 991.0
7.82237 914.0
8.10646 899.0
8.39055 876.0
8.67465 923.0
8.95874 809.0
9.24283 892.0
9.52692 7821.0
9.81101 1059.0
10.0951 841.0
10.3792 777.0
10.6633 808.0
10.9474 757.0
11.2315 775.0
11.5156 746.0
11.7997 703.0
12.0837 738.0
12.3678 722.0
12.6519 805.0
12.936 1963.0
13.2201 886.0
13.5042 884.0
13.7883 662.0
14.0724 813.0
14.3565 665.0
14.6406 636.0
14.9247 599.0
15.2088 641.0
15.4928 641.0
15.7769 679.0
16.061 1081.0
16.3451 826.0
16.6292 789.0
16.9133 878.0
17.1974 931.0
17.4815 856.0
17.7656 1020.0
18.0497 1020.0
18.3338 773.0
18.6179 738.0
18.9019 748.0
19.186 1373.0
19.4701 788.0
19.7542 783.0
20.0383 849.0
20.3224 996.0
20.6065 1245.0
20.8906 3609.0
21.1747 1290.0
21.4588 1336.0
21.7429 956.0
22.0269 880.0
22.311 990.0
22.5951 967.0
22.8792 1027.0
23.1633 1196.0
23.4474 1178.0
23.7315 1125.0
24.0156 1126.0
24.2997 1121.0
24.5838 1247.0
24.8679 1312.0
25.152 2034.0
25.436 1372.0
25.7201 1351.0
26.0042 1482.0
26.2883 2072.0
26.5724 1272.0
26.8565 1214.0
27.1406 1201.0
27.4247 1150.0
27.7088 1126.0
27.9929 1428.0
28.277 1432.0
28.5611 1322.0
28.8451 1222.0
29.1292 1163.0
29.4133 1228.0
29.6974 1324.0
29.9815 1407.0
30.2656 1500.0
30.5497 1898.0
30.8338 2697.0
31.1179 2939.0
31.402 2940.0
31.6861 1596.0
31.9702 1642.0
32.2542 1285.0
32.5383 1183.0
32.8224 1141.0
33.1065 1018.0
33.3906 1002.0
33.6747 1058.0
33.9588 996.0
34.2429 894.0
34.527 865.0
34.8111 1050.0
35.0952 871.0
35.3793 879.0
35.6633 743.0
35.9474 778.0
36.2315 845.0
36.5156 777.0
36.7997 677.0
37.0838 719.0
37.3679 661.0
37.652 622.0
37.9361 633.0
38.2202 614.0
38.5043 635.0
38.7884 662.0
39.0724 628.0
39.3565 656.0
39.6406 680.0
39.9247 705.0
40.2088 699.0
40.4929 620.0
40.777 631.0
41.0611 603.0
41.3452 674.0
41.6293 600.0
41.9134 643.0
42.1975 639.0
42.4815 628.0
42.7656 636.0
43.0497 648.0
43.3338 699.0
43.6179 727.0
43.902 732.0
44.1861 628.0
44.4702 670.0
44.7543 611.0
45.0384 571.0
45.3225 575.0
45.6066 560.0
45.8906 566.0
46.1747 618.0
46.4588 617.0
46.7429 582.0
47.027 604.0
47.3111 612.0
47.5952 618.0
47.8793 576.0
48.1634 667.0
48.4475 598.0
48.7316 619.0
49.0156 619.0
49.2997 869.0
49.5838 779.0
49.8679 675.0
50.152 619.0
50.4361 645.0
50.7202 707.0
51.0043 643.0
51.2884 763.0
51.5725 649.0
51.8566 580.0
52.1407 605.0
52.4247 605.0
52.7088 565.0
52.9929 548.0
53.277 583.0
53.5611 604.0
53.8452 633.0
54.1293 596.0
54.4134 580.0
54.6975 623.0
54.9816 596.0
55.2657 563.0
55.5498 599.0
55.8338 631.0
56.1179 548.0
56.402 598.0
56.6861 650.0
56.9702 623.0
57.2543 603.0
57.5384 534.0
57.8225 563.0
58.1066 504.0
58.3907 508.0
58.6748 517.0
58.9589 528.0
59.2429 494.0
59.527 554.0
59.8111 480.0
60.0952 553.0
60.3793 582.0
60.6634 504.0
60.9475 474.0
61.2316 548.0
61.5157 473.0
61.7998 527.0
62.0839 607.0
62.368 543.0
62.652 550.0
62.9361 482.0
63.2202 502.0
63.5043 503.0
63.7884 513.0
64.0725 472.0
64.3566 512.0
64.6407 467.0
64.9248 496.0
65.2089 500.0
65.493 479.0
65.7771 511.0
66.0611 541.0
66.3452 500.0
66.6293 541.0
66.9134 550.0
67.1975 523.0
67.4816 531.0
67.7657 517.0
68.0498 505.0
68.3339 496.0
68.618 473.0
68.9021 457.0
69.1862 469.0
69.4702 462.0
69.7543 485.0
70.0384 529.0
70.3225 481.0
70.6066 503.0
70.8907 486.0
71.1748 493.0
71.4589 461.0
71.743 492.0
72.0271 447.0
72.3112 505.0
72.5952 460.0
72.8793 471.0
73.1634 459.0
73.4475 453.0
73.7316 395.0
74.0157 458.0
74.2998 450.0
74.5839 401.0
74.868 430.0
75.1521 406.0
75.4362 384.0
75.7203 445.0
76.0043 385.0
76.2884 427.0
76.5725 410.0
76.8566 454.0
77.1407 384.0
77.4248 366.0
77.7089 400.0
77.993 391.0
78.2771 379.0
78.5612 395.0
78.8453 424.0
79.1294 365.0
79.4134 371.0
79.6975 368.0
79.9816 348.0
80.2657 392.0
80.5498 322.0
80.8339 336.0
81.118 354.0
81.4021 352.0
81.6862 321.0
81.9703 328.0
82.2544 333.0
82.5385 331.0
82.8225 288.0
83.1066 307.0
83.3907 318.0
83.6748 341.0
83.9589 306.0
84.243 301.0
84.5271 297.0
84.8112 294.0
85.0953 304.0
85.3794 271.0
85.6635 274.0
85.9476 288.0
86.2316 284.0
86.5157 290.0
86.7998 271.0
87.0839 246.0
87.368 251.0
87.6521 247.0
87.9362 259.0
88.2203 263.0
88.5044 260.0
88.7885 247.0
89.0726 214.0
89.3567 250.0
89.6407 285.0
89.9248 272.0
89.9415 275.0

File: 20220704_SAPO-34_CASALE.xy
4.98146 1602.0
5.26555 1528.0
5.54964 1437.0
5.83373 1359.0
6.11782 1231.0
6.40191 1213.0
6.68601 1102.0
6.9701 1107.0
7.25419 1114.0
7.53828 1026.0
7.82237 1041.0
8.10646 1006.0
8.39055 977.0
8.67465 944.0
8.95874 927.0
9.24283 1009.0
9.52692 5443.0
9.81101 924.0
10.0951 867.0
10.3792 883.0
10.6633 882.0
10.9474 818.0
11.2315 790.0
11.5156 800.0
11.7997 784.0
12.0837 744.0
12.3678 771.0
12.6519 814.0
12.936 2002.0
13.2201 806.0
13.5042 760.0
13.7883 748.0
14.0724 828.0
14.3565 769.0
14.6406 754.0
14.9247 808.0
15.2088 777.0
15.4928 817.0
15.7769 847.0
16.061 1716.0
16.3451 880.0
16.6292 917.0
16.9133 964.0
17.1974 987.0
17.4815 1062.0
17.7656 1600.0
18.0497 1240.0
18.3338 1224.0
18.6179 1209.0
18.9019 1288.0
19.186 1453.0
19.4701 1446.0
19.7542 1597.0
20.0383 1755.0
20.3224 1869.0
20.6065 2670.0
20.8906 2299.0
21.1747 1974.0
21.4588 1997.0
21.7429 1945.0
22.0269 2162.0
22.311 2031.0
22.5951 2068.0
22.8792 2098.0
23.1633 2510.0
23.4474 2034.0
23.7315 1874.0
24.0156 1918.0
24.2997 1821.0
24.5838 1737.0
24.8679 2083.0
25.152 1847.0
25.436 1708.0
25.7201 1660.0
26.0042 2193.0
26.2883 1588.0
26.5724 1465.0
26.8565 1435.0
27.1406 1458.0
27.4247 1359.0
27.7088 1456.0
27.9929 1371.0
28.277 1496.0
28.5611 1334.0
28.8451 1255.0
29.1292 1203.0
29.4133 1269.0
29.6974 1238.0
29.9815 1224.0
30.2656 1270.0
30.5497 1481.0
30.8338 3064.0
31.1179 1914.0
31.402 1333.0
31.6861 1268.0
31.9702 1072.0
32.2542 992.0
32.5383 1044.0
32.8224 1017.0
33.1065 964.0
33.3906 955.0
33.6747 1002.0
33.9588 867.0
34.2429 865.0
34.527 954.0
34.8111 1116.0
35.0952 916.0
35.3793 876.0
35.6633 802.0
35.9474 852.0
36.2315 891.0
36.5156 785.0
36.7997 786.0
37.0838 768.0
37.3679 722.0
37.652 774.0
37.9361 723.0
38.2202 698.0
38.5043 686.0
38.7884 737.0
39.0724 716.0
39.3565 734.0
39.6406 692.0
39.9247 712.0
40.2088 653.0
40.4929 637.0
40.777 633.0
41.0611 635.0
41.3452 651.0
41.6293 635.0
41.9134 613.0
42.1975 612.0
42.4815 660.0
42.7656 632.0
43.0497 670.0
43.3338 649.0
43.6179 771.0
43.902 653.0
44.1861 713.0
44.4702 663.0
44.7543 649.0
45.0384 665.0
45.3225 660.0
45.6066 696.0
45.8906 734.0
46.1747 643.0
46.4588 614.0
46.7429 634.0
47.027 678.0
47.3111 645.0
47.5952 629.0
47.8793 647.0
48.1634 607.0
48.4475 605.0
48.7316 611.0
49.0156 680.0
49.2997 685.0
49.5838 618.0
49.8679 560.0
50.152 613.0
50.4361 642.0
50.7202 647.0
51.0043 720.0
51.2884 605.0
51.5725 633.0
51.8566 575.0
52.1407 621.0
52.4247 552.0
52.7088 570.0
52.9929 582.0
53.277 596.0
53.5611 699.0
53.8452 615.0
54.1293 550.0
54.4134 580.0
54.6975 661.0
54.9816 553.0
55.2657 597.0
55.5498 575.0
55.8338 572.0
56.1179 568.0
56.402 597.0
56.6861 602.0
56.9702 551.0
57.2543 583.0
57.5384 535.0
57.8225 551.0
58.1066 513.0
58.3907 543.0
58.6748 553.0
58.9589 526.0
59.2429 553.0
59.527 536.0
59.8111 613.0
60.0952 561.0
60.3793 549.0
60.6634 551.0
60.9475 551.0
61.2316 544.0
61.5157 604.0
61.7998 589.0
62.0839 589.0
62.368 518.0
62.652 532.0
62.9361 598.0
63.2202 588.0
63.5043 576.0
63.7884 558.0
64.0725 578.0
64.3566 580.0
64.6407 598.0
64.9248 571.0
65.2089 554.0
65.493 607.0
65.7771 559.0
66.0611 639.0
66.3452 625.0
66.6293 605.0
66.9134 613.0
67.1975 625.0
67.4816 612.0
67.7657 586.0
68.0498 591.0
68.3339 587.0
68.618 529.0
68.9021 561.0
69.1862 532.0
69.4702 519.0
69.7543 536.0
70.0384 542.0
70.3225 510.0
70.6066 523.0
70.8907 506.0
71.1748 555.0
71.4589 490.0
71.743 469.0
72.0271 518.0
72.3112 506.0
72.5952 477.0
72.8793 513.0
73.1634 490.0
73.4475 486.0
73.7316 494.0
74.0157 490.0
74.2998 510.0
74.5839 462.0
74.868 497.0
75.1521 475.0
75.4362 482.0
75.7203 485.0
76.0043 501.0
76.2884 469.0
76.5725 482.0
76.8566 442.0
77.1407 461.0
77.4248 434.0
77.7089 436.0
77.993 488.0
78.2771 436.0
78.5612 493.0
78.8453 466.0
79.1294 436.0
79.4134 428.0
79.6975 465.0
79.9816 462.0
80.2657 407.0
80.5498 425.0
80.8339 425.0
81.118 407.0
81.4021 372.0
81.6862 408.0
81.9703 385.0
82.2544 376.0
82.5385 381.0
82.8225 381.0
83.1066 380.0
83.3907 347.0
83.6748 347.0
83.9589 353.0
84.243 348.0
84.5271 341.0
84.8112 288.0
85.0953 366.0
85.3794 348.0
85.6635 318.0
85.9476 319.0
86.2316 303.0
86.5157 308.0
86.7998 315.0
87.0839 307.0
87.368 283.0
87.6521 267.0
87.9362 274.0
88.2203 315.0
88.5044 301.0
88.7885 290.0
89.0726 304.0
89.3567 307.0
89.6407 300.0
89.9248 276.0
89.9415 274.0

File: 20220715_SAPO-34_70_1_220707_calc650C_20h.xy
4.98146 1538.0
5.26555 1427.0
5.54964 1408.0
5.83373 1230.0
6.11782 1141.0
6.40191 1089.0
6.68601 1162.0
6.9701 1025.0
7.25419 995.0
7.53828 1026.0
7.82237 922.0
8.10646 914.0
8.39055 942.0
8.67465 865.0
8.95874 852.0
9.24283 1013.0
9.52692 15436.0
9.81101 964.0
10.0951 884.0
10.3792 848.0
10.6633 797.0
10.9474 844.0
11.2315 810.0
11.5156 830.0
11.7997 817.0
12.0837 789.0
12.3678 800.0
12.6519 837.0
12.936 3829.0
13.2201 915.0
13.5042 904.0
13.7883 672.0
14.0724 783.0
14.3565 651.0
14.6406 688.0
14.9247 700.0
15.2088 705.0
15.4928 714.0
15.7769 741.0
16.061 1854.0
16.3451 867.0
16.6292 912.0
16.9133 1062.0
17.1974 1086.0
17.4815 1001.0
17.7656 1553.0
18.0497 908.0
18.3338 861.0
18.6179 823.0
18.9019 836.0
19.186 1427.0
19.4701 866.0
19.7542 861.0
20.0383 984.0
20.3224 1084.0
20.6065 1575.0
20.8906 2433.0
21.1747 1314.0
21.4588 1471.0
21.7429 957.0
22.0269 995.0
22.311 948.0
22.5951 1024.0
22.8792 1117.0
23.1633 1631.0
23.4474 1138.0
23.7315 1191.0
24.0156 1195.0
24.2997 1331.0
24.5838 1241.0
24.8679 1513.0
25.152 1666.0
25.436 1326.0
25.7201 1308.0
26.0042 1716.0
26.2883 1681.0
26.5724 1305.0
26.8565 1252.0
27.1406 1081.0
27.4247 1104.0
27.7088 1181.0
27.9929 1294.0
28.277 1534.0
28.5611 1184.0
28.8451 1137.0
29.1292 1151.0
29.4133 1190.0
29.6974 1325.0
29.9815 1325.0
30.2656 1503.0
30.5497 1857.0
30.8338 3156.0
31.1179 2877.0
31.402 2308.0
31.6861 1448.0
31.9702 1356.0
32.2542 1149.0
32.5383 1153.0
32.8224 1021.0
33.1065 942.0
33.3906 932.0
33.6747 1034.0
33.9588 898.0
34.2429 835.0
34.527 870.0
34.8111 981.0
35.0952 820.0
35.3793 787.0
35.6633 740.0
35.9474 725.0
36.2315 809.0
36.5156 646.0
36.7997 646.0
37.0838 634.0
37.3679 588.0
37.652 604.0
37.9361 578.0
38.2202 558.0
38.5043 610.0
38.7884 605.0
39.0724 621.0
39.3565 620.0
39.6406 615.0
39.9247 669.0
40.2088 634.0
40.4929 586.0
40.777 570.0
41.0611 555.0
41.3452 567.0
41.6293 592.0
41.9134 540.0
42.1975 574.0
42.4815 555.0
42.7656 612.0
43.0497 585.0
43.3338 621.0
43.6179 569.0
43.902 589.0
44.1861 613.0
44.4702 588.0
44.7543 553.0
45.0384 550.0
45.3225 569.0
45.6066 567.0
45.8906 528.0
46.1747 510.0
46.4588 524.0
46.7429 532.0
47.027 513.0
47.3111 524.0
47.5952 559.0
47.8793 572.0
48.1634 604.0
48.4475 538.0
48.7316 536.0
49.0156 570.0
49.2997 764.0
49.5838 574.0
49.8679 591.0
50.152 545.0
50.4361 580.0
50.7202 539.0
51.0043 601.0
51.2884 585.0
51.5725 521.0
51.8566 545.0
52.1407 500.0
52.4247 542.0
52.7088 502.0
52.9929 514.0
53.277 524.0
53.5611 570.0
53.8452 586.0
54.1293 501.0
54.4134 485.0
54.6975 495.0
54.9816 500.0
55.2657 514.0
55.5498 565.0
55.8338 560.0
56.1179 478.0
56.402 524.0
56.6861 549.0
56.9702 554.0
57.2543 487.0
57.5384 473.0
57.8225 456.0
58.1066 441.0
58.3907 448.0
58.6748 449.0
58.9589 438.0
59.2429 474.0
59.527 414.0
59.8111 461.0
60.0952 523.0
60.3793 487.0
60.6634 446.0
60.9475 462.0
61.2316 502.0
61.5157 495.0
61.7998 549.0
62.0839 487.0
62.368 450.0
62.652 471.0
62.9361 473.0
63.2202 442.0
63.5043 458.0
63.7884 439.0
64.0725 456.0
64.3566 423.0
64.6407 411.0
64.9248 459.0
65.2089 420.0
65.493 438.0
65.7771 464.0
66.0611 438.0
66.3452 461.0
66.6293 493.0
66.9134 514.0
67.1975 502.0
67.4816 432.0
67.7657 442.0
68.0498 429.0
68.3339 457.0
68.618 447.0
68.9021 431.0
69.1862 441.0
69.4702 408.0
69.7543 425.0
70.0384 456.0
70.3225 420.0
70.6066 391.0
70.8907 398.0
71.1748 426.0
71.4589 440.0
71.743 384.0
72.0271 375.0
72.3112 409.0
72.5952 414.0
72.8793 382.0
73.1634 400.0
73.4475 383.0
73.7316 397.0
74.0157 346.0
74.2998 408.0
74.5839 366.0
74.868 369.0
75.1521 329.0
75.4362 381.0
75.7203 365.0
76.0043 373.0
76.2884 355.0
76.5725 300.0
76.8566 346.0
77.1407 342.0
77.4248 326.0
77.7089 332.0
77.993 344.0
78.2771 303.0
78.5612 316.0
78.8453 320.0
79.1294 285.0
79.4134 291.0
79.6975 295.0
79.9816 294.0
80.2657 309.0
80.5498 282.0
80.8339 309.0
81.118 313.0
81.4021 273.0
81.6862 320.0
81.9703 293.0
82.2544 269.0
82.5385 303.0
82.8225 306.0
83.1066 289.0
83.3907 282.0
83.6748 263.0
83.9589 242.0
84.243 264.0
84.5271 238.0
84.8112 238.0
85.0953 243.0
85.3794 275.0
85.6635 250.0
85.9476 248.0
86.2316 225.0
86.5157 225.0
86.7998 245.0
87.0839 210.0
87.368 224.0
87.6521 206.0
87.9362 242.0
88.2203 238.0
88.5044 253.0
88.7885 219.0
89.0726 185.0
89.3567 232.0
89.6407 215.0
89.9248 229.0
89.9415 220.0

File: 20220715_SAPO-34_70_1_220707_precalc.xy
4.98146 1512.0
5.26555 1397.0
5.54964 1318.0
5.83373 1185.0
6.11782 1128.0
6.40191 1090.0
6.68601 1119.0
6.9701 1033.0
7.25419 1022.0
7.53828 989.0
7.82237 950.0
8.10646 912.0
8.39055 899.0
8.67465 885.0
8.95874 895.0
9.24283 1579.0
9.52692 7418.0
9.81101 1086.0
10.0951 923.0
10.3792 836.0
10.6633 835.0
10.9474 797.0
11.2315 740.0
11.5156 754.0
11.7997 764.0
12.0837 783.0
12.3678 816.0
12.6519 1156.0
12.936 932.0
13.2201 814.0
13.5042 666.0
13.7883 805.0
14.0724 1377.0
14.3565 883.0
14.6406 842.0
14.9247 832.0
15.2088 882.0
15.4928 941.0
15.7769 1423.0
16.061 2188.0
16.3451 1228.0
16.6292 1380.0
16.9133 1503.0
17.1974 1416.0
17.4815 1340.0
17.7656 1927.0
18.0497 1382.0
18.3338 1097.0
18.6179 1010.0
18.9019 1325.0
19.186 1123.0
19.4701 1296.0
19.7542 1516.0
20.0383 1681.0
20.3224 2772.0
20.6065 7282.0
20.8906 2290.0
21.1747 2101.0
21.4588 1203.0
21.7429 800.0
22.0269 1343.0
22.311 1099.0
22.5951 907.0
22.8792 1182.0
23.1633 1191.0
23.4474 1098.0
23.7315 1170.0
24.0156 1349.0
24.2997 1393.0
24.5838 1550.0
24.8679 1761.0
25.152 3787.0
25.436 1649.0
25.7201 4174.0
26.0042 1508.0
26.2883 1308.0
26.5724 1163.0
26.8565 1038.0
27.1406 887.0
27.4247 1185.0
27.7088 945.0
27.9929 1023.0
28.277 1382.0
28.5611 819.0
28.8451 853.0
29.1292 888.0
29.4133 1890.0
29.6974 1279.0
29.9815 1658.0
30.2656 2629.0
30.5497 5378.0
30.8338 3150.0
31.1179 4595.0
31.402 1877.0
31.6861 1582.0
31.9702 1162.0
32.2542 1512.0
32.5383 951.0
32.8224 871.0
33.1065 869.0
33.3906 825.0
33.6747 972.0
33.9588 867.0
34.2429 1235.0
34.527 992.0
34.8111 819.0
35.0952 626.0
35.3793 632.0
35.6633 613.0
35.9474 839.0
36.2315 1074.0
36.5156 541.0
36.7997 480.0
37.0838 532.0
37.3679 536.0
37.652 512.0
37.9361 571.0
38.2202 604.0
38.5043 691.0
38.7884 794.0
39.0724 776.0
39.3565 746.0
39.6406 990.0
39.9247 569.0
40.2088 525.0
40.4929 518.0
40.777 509.0
41.0611 466.0
41.3452 500.0
41.6293 477.0
41.9134 488.0
42.1975 456.0
42.4815 523.0
42.7656 545.0
43.0497 990.0
43.3338 1043.0
43.6179 654.0
43.902 585.0
44.1861 489.0
44.4702 527.0
44.7543 434.0
45.0384 506.0
45.3225 440.0
45.6066 417.0
45.8906 404.0
46.1747 402.0
46.4588 475.0
46.7429 554.0
47.027 521.0
47.3111 658.0
47.5952 848.0
47.8793 531.0
48.1634 516.0
48.4475 531.0
48.7316 1049.0
49.0156 1560.0
49.2997 679.0
49.5838 727.0
49.8679 739.0
50.152 789.0
50.4361 712.0
50.7202 933.0
51.0043 980.0
51.2884 679.0
51.5725 682.0
51.8566 495.0
52.1407 512.0
52.4247 456.0
52.7088 510.0
52.9929 1028.0
53.277 677.0
53.5611 590.0
53.8452 522.0
54.1293 559.0
54.4134 728.0
54.6975 536.0
54.9816 529.0
55.2657 639.0
55.5498 743.0
55.8338 939.0
56.1179 691.0
56.402 525.0
56.6861 497.0
56.9702 434.0
57.2543 398.0
57.5384 397.0
57.8225 366.0
58.1066 419.0
58.3907 385.0
58.6748 426.0
58.9589 383.0
59.2429 462.0
59.527 731.0
59.8111 454.0
60.0952 442.0
60.3793 431.0
60.6634 514.0
60.9475 636.0
61.2316 724.0
61.5157 535.0
61.7998 442.0
62.0839 508.0
62.368 557.0
62.652 494.0
62.9361 482.0
63.2202 549.0
63.5043 475.0
63.7884 430.0
64.0725 430.0
64.3566 504.0
64.6407 501.0
64.9248 438.0
65.2089 441.0
65.493 443.0
65.7771 504.0
66.0611 724.0
66.3452 642.0
66.6293 675.0
66.9134 707.0
67.1975 700.0
67.4816 510.0
67.7657 476.0
68.0498 384.0
68.3339 379.0
68.618 417.0
68.9021 455.0
69.1862 537.0
69.4702 491.0
69.7543 544.0
70.0384 629.0
70.3225 684.0
70.6066 726.0
70.8907 722.0
71.1748 681.0
71.4589 560.0
71.743 475.0
72.0271 579.0
72.3112 541.0
72.5952 535.0
72.8793 438.0
73.1634 376.0
73.4475 368.0
73.7316 409.0
74.0157 426.0
74.2998 398.0
74.5839 369.0
74.868 442.0
75.1521 496.0
75.4362 454.0
75.7203 403.0
76.0043 373.0
76.2884 410.0
76.5725 305.0
76.8566 367.0
77.1407 404.0
77.4248 376.0
77.7089 378.0
77.993 365.0
78.2771 303.0
78.5612 320.0
78.8453 314.0
79.1294 356.0
79.4134 341.0
79.6975 368.0
79.9816 352.0
80.2657 367.0
80.5498 401.0
80.8339 431.0
81.118 341.0
81.4021 367.0
81.6862 356.0
81.9703 350.0
82.2544 323.0
82.5385 335.0
82.8225 308.0
83.1066 369.0
83.3907 310.0
83.6748 351.0
83.9589 348.0
84.243 322.0
84.5271 310.0
84.8112 253.0
85.0953 280.0
85.3794 277.0
85.6635 256.0
85.9476 253.0
86.2316 255.0
86.5157 286.0
86.7998 280.0
87.0839 283.0
87.368 283.0
87.6521 250.0
87.9362 276.0
88.2203 252.0
88.5044 247.0
88.7885 266.0
89.0726 221.0
89.3567 230.0
89.6407 219.0
89.9248 233.0
89.9415 241.0

File: 20220715_SAPO-34_70_2_220707_calc650C_20h.xy
4.98146 1455.0
5.26555 1315.0
5.54964 1285.0
5.83373 1239.0
6.11782 1114.0
6.40191 1136.0
6.68601 1101.0
6.9701 1015.0
7.25419 930.0
7.53828 937.0
7.82237 946.0
8.10646 889.0
8.39055 882.0
8.67465 907.0
8.95874 913.0
9.24283 902.0
9.52692 12524.0
9.81101 979.0
10.0951 875.0
10.3792 854.0
10.6633 813.0
10.9474 722.0
11.2315 725.0
11.5156 762.0
11.7997 763.0
12.0837 779.0
12.3678 746.0
12.6519 739.0
12.936 2721.0
13.2201 877.0
13.5042 904.0
13.7883 648.0
14.0724 778.0
14.3565 606.0
14.6406 701.0
14.9247 683.0
15.2088 659.0
15.4928 595.0
15.7769 621.0
16.061 1383.0
16.3451 775.0
16.6292 768.0
16.9133 996.0
17.1974 938.0
17.4815 849.0
17.7656 1111.0
18.0497 844.0
18.3338 720.0
18.6179 752.0
18.9019 742.0
19.186 1254.0
19.4701 677.0
19.7542 772.0
20.0383 847.0
20.3224 904.0
20.6065 1278.0
20.8906 2225.0
21.1747 1222.0
21.4588 1378.0
21.7429 884.0
22.0269 855.0
22.311 830.0
22.5951 880.0
22.8792 902.0
23.1633 1179.0
23.4474 975.0
23.7315 962.0
24.0156 1010.0
24.2997 1111.0
24.5838 1154.0
24.8679 1160.0
25.152 1510.0
25.436 1090.0
25.7201 1117.0
26.0042 1276.0
26.2883 1492.0
26.5724 1062.0
26.8565 1054.0
27.1406 912.0
27.4247 930.0
27.7088 956.0
27.9929 1179.0
28.277 1221.0
28.5611 1024.0
28.8451 959.0
29.1292 969.0
29.4133 948.0
29.6974 1156.0
29.9815 1127.0
30.2656 1256.0
30.5497 1624.0
30.8338 2387.0
31.1179 2371.0
31.402 2051.0
31.6861 1306.0
31.9702 1291.0
32.2542 1074.0
32.5383 913.0
32.8224 900.0
33.1065 789.0
33.3906 806.0
33.6747 897.0
33.9588 759.0
34.2429 738.0
34.527 717.0
34.8111 866.0
35.0952 665.0
35.3793 735.0
35.6633 633.0
35.9474 630.0
36.2315 745.0
36.5156 564.0
36.7997 501.0
37.0838 542.0
37.3679 507.0
37.652 508.0
37.9361 491.0
38.2202 480.0
38.5043 478.0
38.7884 516.0
39.0724 496.0
39.3565 539.0
39.6406 579.0
39.9247 480.0
40.2088 538.0
40.4929 519.0
40.777 523.0
41.0611 505.0
41.3452 528.0
41.6293 492.0
41.9134 528.0
42.1975 471.0
42.4815 471.0
42.7656 487.0
43.0497 514.0
43.3338 560.0
43.6179 528.0
43.902 532.0
44.1861 483.0
44.4702 526.0
44.7543 482.0
45.0384 488.0
45.3225 497.0
45.6066 476.0
45.8906 472.0
46.1747 455.0
46.4588 474.0
46.7429 440.0
47.027 430.0
47.3111 492.0
47.5952 489.0
47.8793 462.0
48.1634 514.0
48.4475 481.0
48.7316 445.0
49.0156 501.0
49.2997 741.0
49.5838 516.0
49.8679 471.0
50.152 493.0
50.4361 486.0
50.7202 486.0
51.0043 531.0
51.2884 534.0
51.5725 498.0
51.8566 498.0
52.1407 455.0
52.4247 448.0
52.7088 509.0
52.9929 418.0
53.277 488.0
53.5611 446.0
53.8452 512.0
54.1293 456.0
54.4134 441.0
54.6975 441.0
54.9816 472.0
55.2657 446.0
55.5498 473.0
55.8338 448.0
56.1179 458.0
56.402 490.0
56.6861 438.0
56.9702 467.0
57.2543 465.0
57.5384 422.0
57.8225 396.0
58.1066 389.0
58.3907 439.0
58.6748 402.0
58.9589 399.0
59.2429 428.0
59.527 411.0
59.8111 451.0
60.0952 487.0
60.3793 400.0
60.6634 376.0
60.9475 395.0
61.2316 435.0
61.5157 406.0
61.7998 416.0
62.0839 435.0
62.368 389.0
62.652 395.0
62.9361 379.0
63.2202 375.0
63.5043 396.0
63.7884 375.0
64.0725 398.0
64.3566 400.0
64.6407 418.0
64.9248 415.0
65.2089 384.0
65.493 415.0
65.7771 381.0
66.0611 423.0
66.3452 391.0
66.6293 400.0
66.9134 445.0
67.1975 451.0
67.4816 427.0
67.7657 411.0
68.0498 357.0
68.3339 389.0
68.618 382.0
68.9021 364.0
69.1862 357.0
69.4702 428.0
69.7543 358.0
70.0384 400.0
70.3225 426.0
70.6066 396.0
70.8907 389.0
71.1748 389.0
71.4589 372.0
71.743 345.0
72.0271 346.0
72.3112 358.0
72.5952 352.0
72.8793 322.0
73.1634 316.0
73.4475 356.0
73.7316 365.0
74.0157 329.0
74.2998 354.0
74.5839 341.0
74.868 344.0
75.1521 306.0
75.4362 355.0
75.7203 304.0
76.0043 322.0
76.2884 299.0
76.5725 305.0
76.8566 331.0
77.1407 323.0
77.4248 271.0
77.7089 285.0
77.993 304.0
78.2771 295.0
78.5612 320.0
78.8453 278.0
79.1294 306.0
79.4134 273.0
79.6975 291.0
79.9816 267.0
80.2657 278.0
80.5498 266.0
80.8339 268.0
81.118 298.0
81.4021 252.0
81.6862 258.0
81.9703 258.0
82.2544 262.0
82.5385 237.0
82.8225 237.0
83.1066 228.0
83.3907 230.0
83.6748 248.0
83.9589 237.0
84.243 233.0
84.5271 210.0
84.8112 228.0
85.0953 232.0
85.3794 192.0
85.6635 221.0
85.9476 200.0
86.2316 198.0
86.5157 211.0
86.7998 210.0
87.0839 184.0
87.368 206.0
87.6521 207.0
87.9362 201.0
88.2203 225.0
88.5044 182.0
88.7885 217.0
89.0726 200.0
89.3567 222.0
89.6407 223.0
89.9248 197.0
89.9415 201.0

File: 20220715_SAPO-34_70_2_220707_precalc.xy
4.98146 1430.0
5.26555 1345.0
5.54964 1237.0
5.83373 1138.0
6.11782 1062.0
6.40191 1174.0
6.68601 1090.0
6.9701 989.0
7.25419 988.0
7.53828 959.0
7.82237 935.0
8.10646 918.0
8.39055 864.0
8.67465 861.0
8.95874 850.0
9.24283 1536.0
9.52692 4978.0
9.81101 988.0
10.0951 920.0
10.3792 792.0
10.6633 774.0
10.9474 752.0
11.2315 778.0
11.5156 753.0
11.7997 719.0
12.0837 740.0
12.3678 756.0
12.6519 1114.0
12.936 821.0
13.2201 753.0
13.5042 627.0
13.7883 762.0
14.0724 1123.0
14.3565 752.0
14.6406 721.0
14.9247 779.0
15.2088 815.0
15.4928 850.0
15.7769 1369.0
16.061 1707.0
16.3451 1098.0
16.6292 1330.0
16.9133 1417.0
17.1974 1402.0
17.4815 1170.0
17.7656 1585.0
18.0497 1201.0
18.3338 976.0
18.6179 912.0
18.9019 1258.0
19.186 1049.0
19.4701 1237.0
19.7542 1412.0
20.0383 1584.0
20.3224 2538.0
20.6065 5222.0
20.8906 2135.0
21.1747 1964.0
21.4588 1130.0
21.7429 732.0
22.0269 1078.0
22.311 947.0
22.5951 783.0
22.8792 1073.0
23.1633 1016.0
23.4474 989.0
23.7315 1106.0
24.0156 1241.0
24.2997 1320.0
24.5838 1397.0
24.8679 1651.0
25.152 3183.0
25.436 1518.0
25.7201 4048.0
26.0042 1382.0
26.2883 1169.0
26.5724 949.0
26.8565 852.0
27.1406 732.0
27.4247 1036.0
27.7088 732.0
27.9929 886.0
28.277 1130.0
28.5611 724.0
28.8451 752.0
29.1292 840.0
29.4133 1929.0
29.6974 1132.0
29.9815 1559.0
30.2656 2585.0
30.5497 4451.0
30.8338 2689.0
31.1179 4055.0
31.402 1614.0
31.6861 1419.0
31.9702 1136.0
32.2542 1406.0
32.5383 840.0
32.8224 741.0
33.1065 842.0
33.3906 747.0
33.6747 912.0
33.9588 739.0
34.2429 1121.0
34.527 844.0
34.8111 647.0
35.0952 553.0
35.3793 588.0
35.6633 552.0
35.9474 700.0
36.2315 923.0
36.5156 449.0
36.7997 435.0
37.0838 459.0
37.3679 425.0
37.652 475.0
37.9361 494.0
38.2202 462.0
38.5043 570.0
38.7884 679.0
39.0724 659.0
39.3565 678.0
39.6406 802.0
39.9247 504.0
40.2088 487.0
40.4929 418.0
40.777 442.0
41.0611 423.0
41.3452 444.0
41.6293 436.0
41.9134 466.0
42.1975 399.0
42.4815 441.0
42.7656 496.0
43.0497 873.0
43.3338 925.0
43.6179 596.0
43.902 491.0
44.1861 454.0
44.4702 410.0
44.7543 367.0
45.0384 445.0
45.3225 370.0
45.6066 336.0
45.8906 389.0
46.1747 385.0
46.4588 394.0
46.7429 459.0
47.027 451.0
47.3111 583.0
47.5952 694.0
47.8793 454.0
48.1634 429.0
48.4475 496.0
48.7316 912.0
49.0156 1457.0
49.2997 573.0
49.5838 609.0
49.8679 676.0
50.152 739.0
50.4361 635.0
50.7202 794.0
51.0043 849.0
51.2884 610.0
51.5725 565.0
51.8566 476.0
52.1407 420.0
52.4247 426.0
52.7088 416.0
52.9929 859.0
53.277 570.0
53.5611 507.0
53.8452 487.0
54.1293 500.0
54.4134 611.0
54.6975 511.0
54.9816 492.0
55.2657 554.0
55.5498 680.0
55.8338 814.0
56.1179 659.0
56.402 470.0
56.6861 415.0
56.9702 402.0
57.2543 353.0
57.5384 370.0
57.8225 323.0
58.1066 361.0
58.3907 339.0
58.6748 357.0
58.9589 367.0
59.2429 442.0
59.527 667.0
59.8111 356.0
60.0952 373.0
60.3793 425.0
60.6634 548.0
60.9475 573.0
61.2316 674.0
61.5157 497.0
61.7998 399.0
62.0839 428.0
62.368 474.0
62.652 479.0
62.9361 426.0
63.2202 471.0
63.5043 446.0
63.7884 346.0
64.0725 387.0
64.3566 375.0
64.6407 422.0
64.9248 402.0
65.2089 399.0
65.493 389.0
65.7771 458.0
66.0611 641.0
66.3452 590.0
66.6293 610.0
66.9134 647.0
67.1975 637.0
67.4816 497.0
67.7657 395.0
68.0498 365.0
68.3339 354.0
68.618 370.0
68.9021 449.0
69.1862 477.0
69.4702 477.0
69.7543 500.0
70.0384 613.0
70.3225 610.0
70.6066 657.0
70.8907 649.0
71.1748 618.0
71.4589 495.0
71.743 443.0
72.0271 545.0
72.3112 508.0
72.5952 450.0
72.8793 385.0
73.1634 365.0
73.4475 339.0
73.7316 395.0
74.0157 389.0
74.2998 336.0
74.5839 410.0
74.868 355.0
75.1521 389.0
75.4362 406.0
75.7203 358.0
76.0043 365.0
76.2884 361.0
76.5725 305.0
76.8566 348.0
77.1407 347.0
77.4248 370.0
77.7089 340.0
77.993 353.0
78.2771 324.0
78.5612 309.0
78.8453 309.0
79.1294 332.0
79.4134 357.0
79.6975 340.0
79.9816 320.0
80.2657 353.0
80.5498 393.0
80.8339 401.0
81.118 346.0
81.4021 297.0
81.6862 318.0
81.9703 333.0
82.2544 307.0
82.5385 300.0
82.8225 334.0
83.1066 322.0
83.3907 272.0
83.6748 286.0
83.9589 328.0
84.243 306.0
84.5271 302.0
84.8112 229.0
85.0953 298.0
85.3794 238.0
85.6635 250.0
85.9476 239.0
86.2316 244.0
86.5157 244.0
86.7998 220.0
87.0839 282.0
87.368 277.0
87.6521 238.0
87.9362 221.0
88.2203 259.0
88.5044 230.0
88.7885 250.0
89.0726 223.0
89.3567 216.0
89.6407 221.0
89.9248 205.0
89.9415 197.0