Folder: bachelor_thesis/code/XRD_Analysis/External Sources/Alex_SAPO (part 4)

File: 20221013_SAPO-18_221010_2_calc550C.xy
4.98146 1578.0
5.26555 1390.0
5.54964 1319.0
5.83373 1213.0
6.11782 1194.0
6.40191 1194.0
6.68601 1069.0
6.9701 1117.0
7.25419 1003.0
7.53828 942.0
7.82237 954.0
8.10646 935.0
8.39055 954.0
8.67465 959.0
8.95874 976.0
9.24283 1509.0
9.52692 11286.0
9.81101 1760.0
10.0951 994.0
10.3792 1110.0
10.6633 2564.0
10.9474 1038.0
11.2315 842.0
11.5156 809.0
11.7997 778.0
12.0837 775.0
12.3678 722.0
12.6519 853.0
12.936 2590.0
13.2201 940.0
13.5042 1314.0
13.7883 850.0
14.0724 868.0
14.3565 710.0
14.6406 740.0
14.9247 748.0
15.2088 746.0
15.4928 768.0
15.7769 844.0
16.061 1843.0
16.3451 1192.0
16.6292 994.0
16.9133 2405.0
17.1974 2409.0
17.4815 1683.0
17.7656 1015.0
18.0497 856.0
18.3338 873.0
18.6179 901.0
18.9019 923.0
19.186 1404.0
19.4701 1096.0
19.7542 1413.0
20.0383 1629.0
20.3224 2544.0
20.6065 2884.0
20.8906 2133.0
21.1747 2193.0
21.4588 5029.0
21.7429 1985.0
22.0269 1605.0
22.311 1443.0
22.5951 1665.0
22.8792 1582.0
23.1633 1772.0
23.4474 1430.0
23.7315 1671.0
24.0156 3348.0
24.2997 1868.0
24.5838 1401.0
24.8679 1296.0
25.152 1290.0
25.436 1499.0
25.7201 1447.0
26.0042 2112.0
26.2883 1845.0
26.5724 1916.0
26.8565 1397.0
27.1406 1393.0
27.4247 1344.0
27.7088 1480.0
27.9929 2037.0
28.277 1782.0
28.5611 1416.0
28.8451 1344.0
29.1292 1325.0
29.4133 1413.0
29.6974 1522.0
29.9815 1682.0
30.2656 1723.0
30.5497 1845.0
30.8338 1963.0
31.1179 2659.0
31.402 2422.0
31.6861 1522.0
31.9702 1463.0
32.2542 1523.0
32.5383 1682.0
32.8224 1489.0
33.1065 1451.0
33.3906 1109.0
33.6747 998.0
33.9588 988.0
34.2429 917.0
34.527 958.0
34.8111 897.0
35.0952 913.0
35.3793 1156.0
35.6633 1084.0
35.9474 824.0
36.2315 853.0
36.5156 829.0
36.7997 701.0
37.0838 688.0
37.3679 695.0
37.652 707.0
37.9361 648.0
38.2202 619.0
38.5043 646.0
38.7884 606.0
39.0724 670.0
39.3565 648.0
39.6406 650.0
39.9247 638.0
40.2088 615.0
40.4929 589.0
40.777 634.0
41.0611 630.0
41.3452 658.0
41.6293 660.0
41.9134 684.0
42.1975 613.0
42.4815 612.0
42.7656 603.0
43.0497 633.0
43.3338 725.0
43.6179 694.0
43.902 626.0
44.1861 612.0
44.4702 602.0
44.7543 604.0
45.0384 639.0
45.3225 587.0
45.6066 565.0
45.8906 558.0
46.1747 558.0
46.4588 537.0
46.7429 578.0
47.027 586.0
47.3111 582.0
47.5952 503.0
47.8793 558.0
48.1634 581.0
48.4475 582.0
48.7316 532.0
49.0156 638.0
49.2997 646.0
49.5838 695.0
49.8679 620.0
50.152 605.0
50.4361 605.0
50.7202 606.0
51.0043 622.0
51.2884 633.0
51.5725 561.0
51.8566 559.0
52.1407 591.0
52.4247 510.0
52.7088 548.0
52.9929 529.0
53.277 585.0
53.5611 556.0
53.8452 580.0
54.1293 513.0
54.4134 523.0
54.6975 521.0
54.9816 505.0
55.2657 557.0
55.5498 605.0
55.8338 613.0
56.1179 582.0
56.402 579.0
56.6861 537.0
56.9702 537.0
57.2543 474.0
57.5384 490.0
57.8225 498.0
58.1066 522.0
58.3907 408.0
58.6748 475.0
58.9589 480.0
59.2429 497.0
59.527 504.0
59.8111 543.0
60.0952 472.0
60.3793 453.0
60.6634 455.0
60.9475 455.0
61.2316 448.0
61.5157 464.0
61.7998 470.0
62.0839 457.0
62.368 422.0
62.652 498.0
62.9361 456.0
63.2202 513.0
63.5043 477.0
63.7884 511.0
64.0725 521.0
64.3566 434.0
64.6407 487.0
64.9248 447.0
65.2089 449.0
65.493 476.0
65.7771 475.0
66.0611 434.0
66.3452 433.0
66.6293 459.0
66.9134 477.0
67.1975 442.0
67.4816 458.0
67.7657 449.0
68.0498 446.0
68.3339 415.0
68.618 422.0
68.9021 425.0
69.1862 401.0
69.4702 418.0
69.7543 398.0
70.0384 380.0
70.3225 440.0
70.6066 414.0
70.8907 411.0
71.1748 436.0
71.4589 400.0
71.743 382.0
72.0271 396.0
72.3112 382.0
72.5952 373.0
72.8793 389.0
73.1634 369.0
73.4475 377.0
73.7316 410.0
74.0157 410.0
74.2998 410.0
74.5839 346.0
74.868 378.0
75.1521 363.0
75.4362 366.0
75.7203 382.0
76.0043 373.0
76.2884 403.0
76.5725 372.0
76.8566 377.0
77.1407 346.0
77.4248 357.0
77.7089 393.0
77.993 339.0
78.2771 362.0
78.5612 342.0
78.8453 336.0
79.1294 401.0
79.4134 360.0
79.6975 329.0
79.9816 347.0
80.2657 361.0
80.5498 321.0
80.8339 372.0
81.118 334.0
81.4021 340.0
81.6862 316.0
81.9703 314.0
82.2544 314.0
82.5385 302.0
82.8225 302.0
83.1066 308.0
83.3907 317.0
83.6748 317.0
83.9589 285.0
84.243 302.0
84.5271 331.0
84.8112 288.0
85.0953 268.0
85.3794 266.0
85.6635 254.0
85.9476 264.0
86.2316 262.0
86.5157 269.0
86.7998 262.0
87.0839 225.0
87.368 248.0
87.6521 233.0
87.9362 259.0
88.2203 250.0
88.5044 235.0
88.7885 243.0
89.0726 253.0
89.3567 224.0
89.6407 206.0
89.9248 224.0
89.9415 222.0

File: 20221110_SAPO-18_221103_calc550C.xy
4.98146 1735.0
5.26555 1551.0
5.54964 1435.0
5.83373 1290.0
6.11782 1328.0
6.40191 1251.0
6.68601 1131.0
6.9701 1087.0
7.25419 1059.0
7.53828 973.0
7.82237 987.0
8.10646 974.0
8.39055 911.0
8.67465 924.0
8.95874 975.0
9.24283 1212.0
9.52692 5794.0
9.81101 1631.0
10.0951 923.0
10.3792 964.0
10.6633 1685.0
10.9474 949.0
11.2315 804.0
11.5156 768.0
11.7997 746.0
12.0837 773.0
12.3678 735.0
12.6519 845.0
12.936 1711.0
13.2201 821.0
13.5042 1052.0
13.7883 775.0
14.0724 873.0
14.3565 679.0
14.6406 784.0
14.9247 683.0
15.2088 760.0
15.4928 769.0
15.7769 784.0
16.061 1294.0
16.3451 1018.0
16.6292 982.0
16.9133 1709.0
17.1974 1682.0
17.4815 1399.0
17.7656 986.0
18.0497 934.0
18.3338 938.0
18.6179 937.0
18.9019 995.0
19.186 1293.0
19.4701 1035.0
19.7542 1265.0
20.0383 1350.0
20.3224 1451.0
20.6065 1646.0
20.8906 1596.0
21.1747 1445.0
21.4588 2252.0
21.7429 1445.0
22.0269 1318.0
22.311 1361.0
22.5951 1364.0
22.8792 1286.0
23.1633 1521.0
23.4474 1407.0
23.7315 1603.0
24.0156 2667.0
24.2997 1850.0
24.5838 1418.0
24.8679 1387.0
25.152 1381.0
25.436 1509.0
25.7201 1538.0
26.0042 1900.0
26.2883 1867.0
26.5724 1785.0
26.8565 1446.0
27.1406 1338.0
27.4247 1450.0
27.7088 1421.0
27.9929 1799.0
28.277 1611.0
28.5611 1322.0
28.8451 1333.0
29.1292 1297.0
29.4133 1329.0
29.6974 1520.0
29.9815 1459.0
30.2656 1564.0
30.5497 1605.0
30.8338 1646.0
31.1179 2083.0
31.402 2046.0
31.6861 1416.0
31.9702 1361.0
32.2542 1371.0
32.5383 1429.0
32.8224 1284.0
33.1065 1278.0
33.3906 1081.0
33.6747 949.0
33.9588 953.0
34.2429 833.0
34.527 989.0
34.8111 848.0
35.0952 835.0
35.3793 766.0
35.6633 738.0
35.9474 801.0
36.2315 781.0
36.5156 806.0
36.7997 779.0
37.0838 664.0
37.3679 705.0
37.652 617.0
37.9361 686.0
38.2202 663.0
38.5043 675.0
38.7884 650.0
39.0724 661.0
39.3565 656.0
39.6406 654.0
39.9247 617.0
40.2088 675.0
40.4929 678.0
40.777 679.0
41.0611 668.0
41.3452 662.0
41.6293 652.0
41.9134 645.0
42.1975 642.0
42.4815 676.0
42.7656 628.0
43.0497 574.0
43.3338 622.0
43.6179 711.0
43.902 625.0
44.1861 620.0
44.4702 557.0
44.7543 621.0
45.0384 590.0
45.3225 586.0
45.6066 557.0
45.8906 592.0
46.1747 564.0
46.4588 573.0
46.7429 582.0
47.027 618.0
47.3111 558.0
47.5952 549.0
47.8793 523.0
48.1634 566.0
48.4475 570.0
48.7316 539.0
49.0156 594.0
49.2997 627.0
49.5838 605.0
49.8679 618.0
50.152 639.0
50.4361 574.0
50.7202 559.0
51.0043 558.0
51.2884 587.0
51.5725 580.0
51.8566 547.0
52.1407 524.0
52.4247 508.0
52.7088 466.0
52.9929 555.0
53.277 527.0
53.5611 516.0
53.8452 537.0
54.1293 490.0
54.4134 540.0
54.6975 503.0
54.9816 540.0
55.2657 492.0
55.5498 493.0
55.8338 531.0
56.1179 520.0
56.402 551.0
56.6861 535.0
56.9702 487.0
57.2543 534.0
57.5384 461.0
57.8225 443.0
58.1066 475.0
58.3907 498.0
58.6748 464.0
58.9589 436.0
59.2429 471.0
59.527 438.0
59.8111 465.0
60.0952 471.0
60.3793 493.0
60.6634 483.0
60.9475 482.0
61.2316 460.0
61.5157 493.0
61.7998 463.0
62.0839 461.0
62.368 435.0
62.652 448.0
62.9361 470.0
63.2202 474.0
63.5043 432.0
63.7884 481.0
64.0725 408.0
64.3566 486.0
64.6407 495.0
64.9248 449.0
65.2089 465.0
65.493 469.0
65.7771 481.0
66.0611 473.0
66.3452 474.0
66.6293 486.0
66.9134 492.0
67.1975 507.0
67.4816 447.0
67.7657 442.0
68.0498 434.0
68.3339 463.0
68.618 412.0
68.9021 438.0
69.1862 416.0
69.4702 394.0
69.7543 406.0
70.0384 384.0
70.3225 422.0
70.6066 441.0
70.8907 397.0
71.1748 451.0
71.4589 388.0
71.743 365.0
72.0271 404.0
72.3112 400.0
72.5952 369.0
72.8793 355.0
73.1634 402.0
73.4475 362.0
73.7316 423.0
74.0157 351.0
74.2998 377.0
74.5839 349.0
74.868 368.0
75.1521 368.0
75.4362 382.0
75.7203 333.0
76.0043 348.0
76.2884 368.0
76.5725 363.0
76.8566 318.0
77.1407 317.0
77.4248 344.0
77.7089 346.0
77.993 308.0
78.2771 285.0
78.5612 315.0
78.8453 349.0
79.1294 310.0
79.4134 317.0
79.6975 288.0
79.9816 313.0
80.2657 285.0
80.5498 318.0
80.8339 337.0
81.118 329.0
81.4021 301.0
81.6862 293.0
81.9703 323.0
82.2544 271.0
82.5385 262.0
82.8225 268.0
83.1066 279.0
83.3907 291.0
83.6748 255.0
83.9589 277.0
84.243 297.0
84.5271 276.0
84.8112 264.0
85.0953 275.0
85.3794 285.0
85.6635 251.0
85.9476 251.0
86.2316 225.0
86.5157 230.0
86.7998 250.0
87.0839 248.0
87.368 220.0
87.6521 248.0
87.9362 215.0
88.2203 258.0
88.5044 222.0
88.7885 227.0
89.0726 225.0
89.3567 203.0
89.6407 239.0
89.9248 221.0
89.9415 239.0

File: 20221129_SAPO-34_CASALE_calc650C_10h.xy
4.98146 1565.0
5.26555 1397.0
5.54964 1367.0
5.83373 1200.0
6.11782 1234.0
6.40191 1153.0
6.68601 1087.0
6.9701 1102.0
7.25419 1047.0
7.53828 1038.0
7.82237 992.0
8.10646 998.0
8.39055 1005.0
8.67465 896.0
8.95874 865.0
9.24283 989.0
9.52692 4945.0
9.81101 984.0
10.0951 882.0
10.3792 832.0
10.6633 775.0
10.9474 842.0
11.2315 833.0
11.5156 842.0
11.7997 773.0
12.0837 751.0
12.3678 850.0
12.6519 853.0
12.936 1770.0
13.2201 864.0
13.5042 794.0
13.7883 787.0
14.0724 885.0
14.3565 829.0
14.6406 824.0
14.9247 870.0
15.2088 872.0
15.4928 897.0
15.7769 913.0
16.061 1499.0
16.3451 1042.0
16.6292 1015.0
16.9133 1029.0
17.1974 1098.0
17.4815 1178.0
17.7656 1654.0
18.0497 1392.0
18.3338 1363.0
18.6179 1456.0
18.9019 1528.0
19.186 1839.0
19.4701 1683.0
19.7542 1821.0
20.0383 1885.0
20.3224 2136.0
20.6065 2739.0
20.8906 3370.0
21.1747 2368.0
21.4588 2386.0
21.7429 2355.0
22.0269 2470.0
22.311 2375.0
22.5951 2413.0
22.8792 2383.0
23.1633 2789.0
23.4474 2208.0
23.7315 2122.0
24.0156 2159.0
24.2997 1954.0
24.5838 2002.0
24.8679 2146.0
25.152 2610.0
25.436 1953.0
25.7201 1784.0
26.0042 2059.0
26.2883 1987.0
26.5724 1663.0
26.8565 1583.0
27.1406 1572.0
27.4247 1517.0
27.7088 1480.0
27.9929 1616.0
28.277 1634.0
28.5611 1303.0
28.8451 1287.0
29.1292 1303.0
29.4133 1301.0
29.6974 1367.0
29.9815 1284.0
30.2656 1315.0
30.5497 1473.0
30.8338 2932.0
31.1179 2049.0
31.402 1666.0
31.6861 1315.0
31.9702 1232.0
32.2542 1088.0
32.5383 1065.0
32.8224 1033.0
33.1065 1038.0
33.3906 1039.0
33.6747 1113.0
33.9588 1059.0
34.2429 940.0
34.527 937.0
34.8111 1148.0
35.0952 989.0
35.3793 964.0
35.6633 846.0
35.9474 875.0
36.2315 994.0
36.5156 902.0
36.7997 840.0
37.0838 805.0
37.3679 822.0
37.652 821.0
37.9361 717.0
38.2202 752.0
38.5043 791.0
38.7884 728.0
39.0724 726.0
39.3565 776.0
39.6406 778.0
39.9247 715.0
40.2088 806.0
40.4929 688.0
40.777 663.0
41.0611 660.0
41.3452 653.0
41.6293 653.0
41.9134 643.0
42.1975 681.0
42.4815 721.0
42.7656 675.0
43.0497 746.0
43.3338 674.0
43.6179 700.0
43.902 774.0
44.1861 701.0
44.4702 728.0
44.7543 675.0
45.0384 730.0
45.3225 787.0
45.6066 743.0
45.8906 686.0
46.1747 708.0
46.4588 756.0
46.7429 667.0
47.027 644.0
47.3111 697.0
47.5952 675.0
47.8793 681.0
48.1634 730.0
48.4475 660.0
48.7316 647.0
49.0156 708.0
49.2997 740.0
49.5838 649.0
49.8679 691.0
50.152 653.0
50.4361 689.0
50.7202 666.0
51.0043 740.0
51.2884 659.0
51.5725 633.0
51.8566 622.0
52.1407 596.0
52.4247 611.0
52.7088 580.0
52.9929 628.0
53.277 668.0
53.5611 662.0
53.8452 699.0
54.1293 622.0
54.4134 599.0
54.6975 635.0
54.9816 621.0
55.2657 557.0
55.5498 639.0
55.8338 572.0
56.1179 610.0
56.402 663.0
56.6861 631.0
56.9702 574.0
57.2543 602.0
57.5384 510.0
57.8225 607.0
58.1066 607.0
58.3907 601.0
58.6748 570.0
58.9589 632.0
59.2429 572.0
59.527 591.0
59.8111 684.0
60.0952 661.0
60.3793 634.0
60.6634 614.0
60.9475 581.0
61.2316 660.0
61.5157 623.0
61.7998 651.0
62.0839 631.0
62.368 627.0
62.652 610.0
62.9361 634.0
63.2202 648.0
63.5043 611.0
63.7884 638.0
64.0725 600.0
64.3566 548.0
64.6407 666.0
64.9248 602.0
65.2089 604.0
65.493 636.0
65.7771 625.0
66.0611 644.0
66.3452 698.0
66.6293 729.0
66.9134 676.0
67.1975 688.0
67.4816 709.0
67.7657 586.0
68.0498 602.0
68.3339 590.0
68.618 625.0
68.9021 567.0
69.1862 556.0
69.4702 590.0
69.7543 613.0
70.0384 597.0
70.3225 584.0
70.6066 531.0
70.8907 576.0
71.1748 549.0
71.4589 553.0
71.743 556.0
72.0271 556.0
72.3112 557.0
72.5952 544.0
72.8793 507.0
73.1634 507.0
73.4475 533.0
73.7316 527.0
74.0157 508.0
74.2998 501.0
74.5839 526.0
74.868 527.0
75.1521 534.0
75.4362 512.0
75.7203 568.0
76.0043 523.0
76.2884 521.0
76.5725 542.0
76.8566 557.0
77.1407 494.0
77.4248 556.0
77.7089 519.0
77.993 506.0
78.2771 472.0
78.5612 581.0
78.8453 480.0
79.1294 490.0
79.4134 486.0
79.6975 517.0
79.9816 508.0
80.2657 474.0
80.5498 458.0
80.8339 441.0
81.118 457.0
81.4021 486.0
81.6862 449.0
81.9703 425.0
82.2544 431.0
82.5385 443.0
82.8225 394.0
83.1066 428.0
83.3907 457.0
83.6748 417.0
83.9589 400.0
84.243 375.0
84.5271 392.0
84.8112 367.0
85.0953 404.0
85.3794 381.0
85.6635 380.0
85.9476 356.0
86.2316 350.0
86.5157 320.0
86.7998 336.0
87.0839 326.0
87.368 358.0
87.6521 345.0
87.9362 348.0
88.2203 368.0
88.5044 303.0
88.7885 316.0
89.0726 315.0
89.3567 317.0
89.6407 341.0
89.9248 307.0
89.9415 307.0

File: 20221208_SAPO-18_221202_calc550C.xy
4.98146 1522.0
5.26555 1360.0
5.54964 1299.0
5.83373 1299.0
6.11782 1228.0
6.40191 1222.0
6.68601 1117.0
6.9701 1097.0
7.25419 1037.0
7.53828 949.0
7.82237 993.0
8.10646 922.0
8.39055 904.0
8.67465 960.0
8.95874 1032.0
9.24283 1659.0
9.52692 11610.0
9.81101 1621.0
10.0951 1002.0
10.3792 1182.0
10.6633 2243.0
10.9474 985.0
11.2315 785.0
11.5156 773.0
11.7997 703.0
12.0837 735.0
12.3678 761.0
12.6519 899.0
12.936 2549.0
13.2201 865.0
13.5042 1383.0
13.7883 807.0
14.0724 734.0
14.3565 652.0
14.6406 693.0
14.9247 664.0
15.2088 686.0
15.4928 708.0
15.7769 804.0
16.061 2118.0
16.3451 1130.0
16.6292 965.0
16.9133 2772.0
17.1974 2410.0
17.4815 1628.0
17.7656 1003.0
18.0497 814.0
18.3338 819.0
18.6179 830.0
18.9019 907.0
19.186 1182.0
19.4701 1035.0
19.7542 1367.0
20.0383 1528.0
20.3224 1401.0
20.6065 2847.0
20.8906 1512.0
21.1747 1774.0
21.4588 2834.0
21.7429 1328.0
22.0269 1121.0
22.311 1035.0
22.5951 1297.0
22.8792 1187.0
23.1633 1529.0
23.4474 1357.0
23.7315 1752.0
24.0156 3554.0
24.2997 1961.0
24.5838 1350.0
24.8679 1279.0
25.152 1356.0
25.436 1535.0
25.7201 1527.0
26.0042 2490.0
26.2883 2104.0
26.5724 2028.0
26.8565 1287.0
27.1406 1276.0
27.4247 1332.0
27.7088 1542.0
27.9929 2065.0
28.277 1829.0
28.5611 1321.0
28.8451 1198.0
29.1292 1226.0
29.4133 1403.0
29.6974 1613.0
29.9815 1784.0
30.2656 1718.0
30.5497 1980.0
30.8338 2187.0
31.1179 3128.0
31.402 2592.0
31.6861 1580.0
31.9702 1536.0
32.2542 1651.0
32.5383 1700.0
32.8224 1627.0
33.1065 1552.0
33.3906 1106.0
33.6747 963.0
33.9588 941.0
34.2429 893.0
34.527 880.0
34.8111 788.0
35.0952 751.0
35.3793 734.0
35.6633 755.0
35.9474 779.0
36.2315 789.0
36.5156 853.0
36.7997 709.0
37.0838 639.0
37.3679 613.0
37.652 580.0
37.9361 614.0
38.2202 604.0
38.5043 605.0
38.7884 634.0
39.0724 609.0
39.3565 635.0
39.6406 707.0
39.9247 583.0
40.2088 609.0
40.4929 631.0
40.777 612.0
41.0611 586.0
41.3452 657.0
41.6293 656.0
41.9134 652.0
42.1975 594.0
42.4815 563.0
42.7656 543.0
43.0497 610.0
43.3338 681.0
43.6179 672.0
43.902 610.0
44.1861 622.0
44.4702 623.0
44.7543 612.0
45.0384 561.0
45.3225 596.0
45.6066 517.0
45.8906 580.0
46.1747 534.0
46.4588 541.0
46.7429 551.0
47.027 528.0
47.3111 565.0
47.5952 573.0
47.8793 528.0
48.1634 576.0
48.4475 567.0
48.7316 579.0
49.0156 700.0
49.2997 755.0
49.5838 755.0
49.8679 647.0
50.152 639.0
50.4361 633.0
50.7202 647.0
51.0043 653.0
51.2884 590.0
51.5725 574.0
51.8566 615.0
52.1407 553.0
52.4247 581.0
52.7088 548.0
52.9929 522.0
53.277 571.0
53.5611 545.0
53.8452 569.0
54.1293 568.0
54.4134 572.0
54.6975 554.0
54.9816 535.0
55.2657 481.0
55.5498 584.0
55.8338 590.0
56.1179 650.0
56.402 519.0
56.6861 579.0
56.9702 517.0
57.2543 531.0
57.5384 455.0
57.8225 477.0
58.1066 445.0
58.3907 450.0
58.6748 493.0
58.9589 466.0
59.2429 531.0
59.527 564.0
59.8111 516.0
60.0952 489.0
60.3793 482.0
60.6634 488.0
60.9475 482.0
61.2316 454.0
61.5157 485.0
61.7998 500.0
62.0839 476.0
62.368 511.0
62.652 424.0
62.9361 477.0
63.2202 432.0
63.5043 461.0
63.7884 473.0
64.0725 474.0
64.3566 503.0
64.6407 477.0
64.9248 425.0
65.2089 444.0
65.493 441.0
65.7771 474.0
66.0611 456.0
66.3452 466.0
66.6293 459.0
66.9134 497.0
67.1975 480.0
67.4816 522.0
67.7657 467.0
68.0498 472.0
68.3339 474.0
68.618 431.0
68.9021 448.0
69.1862 403.0
69.4702 426.0
69.7543 395.0
70.0384 406.0
70.3225 449.0
70.6066 481.0
70.8907 443.0
71.1748 469.0
71.4589 449.0
71.743 411.0
72.0271 398.0
72.3112 409.0
72.5952 422.0
72.8793 445.0
73.1634 384.0
73.4475 404.0
73.7316 372.0
74.0157 414.0
74.2998 409.0
74.5839 388.0
74.868 416.0
75.1521 367.0
75.4362 381.0
75.7203 400.0
76.0043 358.0
76.2884 396.0
76.5725 367.0
76.8566 369.0
77.1407 368.0
77.4248 348.0
77.7089 339.0
77.993 325.0
78.2771 369.0
78.5612 358.0
78.8453 315.0
79.1294 310.0
79.4134 329.0
79.6975 315.0
79.9816 350.0
80.2657 325.0
80.5498 292.0
80.8339 336.0
81.118 305.0
81.4021 331.0
81.6862 295.0
81.9703 288.0
82.2544 294.0
82.5385 275.0
82.8225 297.0
83.1066 254.0
83.3907 299.0
83.6748 285.0
83.9589 285.0
84.243 262.0
84.5271 245.0
84.8112 237.0
85.0953 246.0
85.3794 242.0
85.6635 243.0
85.9476 244.0
86.2316 246.0
86.5157 230.0
86.7998 260.0
87.0839 261.0
87.368 241.0
87.6521 232.0
87.9362 238.0
88.2203 229.0
88.5044 231.0
88.7885 266.0
89.0726 216.0
89.3567 212.0
89.6407 232.0
89.9248 241.0
89.9415 217.0

File: 20230107_SAPO-18_230105_1_calc550C.xy
4.98146 1515.0
5.26555 1454.0
5.54964 1337.0
5.83373 1246.0
6.11782 1229.0
6.40191 1137.0
6.68601 1064.0
6.9701 1109.0
7.25419 1069.0
7.53828 1011.0
7.82237 948.0
8.10646 982.0
8.39055 945.0
8.67465 966.0
8.95874 974.0
9.24283 1388.0
9.52692 9442.0
9.81101 2665.0
10.0951 1038.0
10.3792 1093.0
10.6633 2415.0
10.9474 1267.0
11.2315 857.0
11.5156 825.0
11.7997 726.0
12.0837 762.0
12.3678 762.0
12.6519 818.0
12.936 2414.0
13.2201 993.0
13.5042 1224.0
13.7883 944.0
14.0724 931.0
14.3565 709.0
14.6406 726.0
14.9247 734.0
15.2088 750.0
15.4928 680.0
15.7769 873.0
16.061 1588.0
16.3451 1590.0
16.6292 1083.0
16.9133 1950.0
17.1974 2706.0
17.4815 1990.0
17.7656 1236.0
18.0497 988.0
18.3338 869.0
18.6179 866.0
18.9019 942.0
19.186 1576.0
19.4701 1096.0
19.7542 1493.0
20.0383 1362.0
20.3224 1628.0
20.6065 2011.0
20.8906 2130.0
21.1747 1571.0
21.4588 2559.0
21.7429 1757.0
22.0269 1216.0
22.311 1199.0
22.5951 1395.0
22.8792 1300.0
23.1633 1427.0
23.4474 1453.0
23.7315 1661.0
24.0156 3471.0
24.2997 2588.0
24.5838 1581.0
24.8679 1430.0
25.152 1429.0
25.436 1673.0
25.7201 1589.0
26.0042 2247.0
26.2883 2106.0
26.5724 2399.0
26.8565 1612.0
27.1406 1485.0
27.4247 1441.0
27.7088 1566.0
27.9929 2098.0
28.277 2081.0
28.5611 1515.0
28.8451 1439.0
29.1292 1309.0
29.4133 1520.0
29.6974 1737.0
29.9815 1796.0
30.2656 2039.0
30.5497 1970.0
30.8338 2258.0
31.1179 2735.0
31.402 2910.0
31.6861 1824.0
31.9702 1727.0
32.2542 1586.0
32.5383 1935.0
32.8224 1694.0
33.1065 1654.0
33.3906 1332.0
33.6747 1051.0
33.9588 1021.0
34.2429 988.0
34.527 1011.0
34.8111 885.0
35.0952 901.0
35.3793 831.0
35.6633 839.0
35.9474 808.0
36.2315 864.0
36.5156 862.0
36.7997 767.0
37.0838 739.0
37.3679 676.0
37.652 688.0
37.9361 674.0
38.2202 698.0
38.5043 684.0
38.7884 676.0
39.0724 679.0
39.3565 782.0
39.6406 694.0
39.9247 675.0
40.2088 645.0
40.4929 669.0
40.777 645.0
41.0611 631.0
41.3452 714.0
41.6293 680.0
41.9134 744.0
42.1975 680.0
42.4815 614.0
42.7656 633.0
43.0497 638.0
43.3338 729.0
43.6179 716.0
43.902 679.0
44.1861 672.0
44.4702 630.0
44.7543 678.0
45.0384 626.0
45.3225 675.0
45.6066 651.0
45.8906 654.0
46.1747 595.0
46.4588 609.0
46.7429 613.0
47.027 643.0
47.3111 626.0
47.5952 594.0
47.8793 605.0
48.1634 607.0
48.4475 587.0
48.7316 654.0
49.0156 721.0
49.2997 793.0
49.5838 745.0
49.8679 708.0
50.152 730.0
50.4361 726.0
50.7202 738.0
51.0043 706.0
51.2884 679.0
51.5725 666.0
51.8566 595.0
52.1407 638.0
52.4247 637.0
52.7088 568.0
52.9929 627.0
53.277 621.0
53.5611 589.0
53.8452 590.0
54.1293 611.0
54.4134 584.0
54.6975 627.0
54.9816 583.0
55.2657 622.0
55.5498 648.0
55.8338 613.0
56.1179 616.0
56.402 604.0
56.6861 548.0
56.9702 584.0
57.2543 561.0
57.5384 518.0
57.8225 573.0
58.1066 564.0
58.3907 534.0
58.6748 551.0
58.9589 547.0
59.2429 551.0
59.527 601.0
59.8111 587.0
60.0952 631.0
60.3793 543.0
60.6634 527.0
60.9475 547.0
61.2316 551.0
61.5157 525.0
61.7998 595.0
62.0839 493.0
62.368 525.0
62.652 507.0
62.9361 523.0
63.2202 520.0
63.5043 521.0
63.7884 513.0
64.0725 508.0
64.3566 529.0
64.6407 536.0
64.9248 565.0
65.2089 527.0
65.493 523.0
65.7771 522.0
66.0611 473.0
66.3452 449.0
66.6293 492.0
66.9134 491.0
67.1975 604.0
67.4816 525.0
67.7657 519.0
68.0498 479.0
68.3339 503.0
68.618 466.0
68.9021 479.0
69.1862 521.0
69.4702 474.0
69.7543 482.0
70.0384 521.0
70.3225 505.0
70.6066 517.0
70.8907 540.0
71.1748 476.0
71.4589 463.0
71.743 410.0
72.0271 411.0
72.3112 461.0
72.5952 469.0
72.8793 454.0
73.1634 464.0
73.4475 428.0
73.7316 459.0
74.0157 446.0
74.2998 432.0
74.5839 436.0
74.868 471.0
75.1521 394.0
75.4362 451.0
75.7203 394.0
76.0043 408.0
76.2884 380.0
76.5725 413.0
76.8566 415.0
77.1407 428.0
77.4248 403.0
77.7089 377.0
77.993 383.0
78.2771 396.0
78.5612 366.0
78.8453 380.0
79.1294 373.0
79.4134 365.0
79.6975 344.0
79.9816 372.0
80.2657 363.0
80.5498 369.0
80.8339 341.0
81.118 346.0
81.4021 348.0
81.6862 345.0
81.9703 344.0
82.2544 337.0
82.5385 353.0
82.8225 318.0
83.1066 325.0
83.3907 332.0
83.6748 294.0
83.9589 318.0
84.243 267.0
84.5271 260.0
84.8112 273.0
85.0953 287.0
85.3794 287.0
85.6635 292.0
85.9476 284.0
86.2316 285.0
86.5157 269.0
86.7998 251.0
87.0839 239.0
87.368 252.0
87.6521 267.0
87.9362 235.0
88.2203 245.0
88.5044 253.0
88.7885 286.0
89.0726 251.0
89.3567 263.0
89.6407 242.0
89.9248 241.0
89.9415 256.0

File: 20230107_SAPO-18_230105_2_calc550C.xy
4.98146 1516.0
5.26555 1491.0
5.54964 1336.0
5.83373 1293.0
6.11782 1204.0
6.40191 1137.0
6.68601 1204.0
6.9701 1035.0
7.25419 1044.0
7.53828 980.0
7.82237 997.0
8.10646 866.0
8.39055 982.0
8.67465 949.0
8.95874 1000.0
9.24283 1605.0
9.52692 11674.0
9.81101 1700.0
10.0951 1045.0
10.3792 1135.0
10.6633 2497.0
10.9474 1048.0
11.2315 857.0
11.5156 748.0
11.7997 774.0
12.0837 734.0
12.3678 728.0
12.6519 842.0
12.936 2695.0
13.2201 866.0
13.5042 1269.0
13.7883 821.0
14.0724 850.0
14.3565 708.0
14.6406 713.0
14.9247 700.0
15.2088 699.0
15.4928 767.0
15.7769 854.0
16.061 1953.0
16.3451 1158.0
16.6292 1078.0
16.9133 2318.0
17.1974 2413.0
17.4815 1691.0
17.7656 1002.0
18.0497 849.0
18.3338 861.0
18.6179 857.0
18.9019 974.0
19.186 1335.0
19.4701 1045.0
19.7542 1486.0
20.0383 1428.0
20.3224 1464.0
20.6065 2284.0
20.8906 1645.0
21.1747 1646.0
21.4588 2789.0
21.7429 1320.0
22.0269 1193.0
22.311 1126.0
22.5951 1472.0
22.8792 1307.0
23.1633 1548.0
23.4474 1409.0
23.7315 1769.0
24.0156 3662.0
24.2997 2079.0
24.5838 1412.0
24.8679 1333.0
25.152 1329.0
25.436 1555.0
25.7201 1536.0
26.0042 2391.0
26.2883 2026.0
26.5724 2249.0
26.8565 1462.0
27.1406 1413.0
27.4247 1456.0
27.7088 1540.0
27.9929 2179.0
28.277 2031.0
28.5611 1490.0
28.8451 1345.0
29.1292 1398.0
29.4133 1488.0
29.6974 1723.0
29.9815 1828.0
30.2656 1824.0
30.5497 1989.0
30.8338 2174.0
31.1179 2964.0
31.402 2559.0
31.6861 1714.0
31.9702 1671.0
32.2542 1625.0
32.5383 1791.0
32.8224 1615.0
33.1065 1679.0
33.3906 1215.0
33.6747 1070.0
33.9588 1033.0
34.2429 935.0
34.527 948.0
34.8111 869.0
35.0952 879.0
35.3793 779.0
35.6633 795.0
35.9474 799.0
36.2315 817.0
36.5156 884.0
36.7997 720.0
37.0838 739.0
37.3679 706.0
37.652 652.0
37.9361 656.0
38.2202 680.0
38.5043 620.0
38.7884 679.0
39.0724 682.0
39.3565 717.0
39.6406 714.0
39.9247 648.0
40.2088 637.0
40.4929 690.0
40.777 704.0
41.0611 693.0
41.3452 684.0
41.6293 706.0
41.9134 697.0
42.1975 659.0
42.4815 619.0
42.7656 633.0
43.0497 637.0
43.3338 731.0
43.6179 708.0
43.902 663.0
44.1861 667.0
44.4702 673.0
44.7543 649.0
45.0384 623.0
45.3225 657.0
45.6066 632.0
45.8906 627.0
46.1747 616.0
46.4588 588.0
46.7429 604.0
47.027 563.0
47.3111 616.0
47.5952 602.0
47.8793 614.0
48.1634 600.0
48.4475 621.0
48.7316 597.0
49.0156 732.0
49.2997 788.0
49.5838 801.0
49.8679 699.0
50.152 673.0
50.4361 689.0
50.7202 641.0
51.0043 742.0
51.2884 619.0
51.5725 659.0
51.8566 651.0
52.1407 622.0
52.4247 559.0
52.7088 637.0
52.9929 659.0
53.277 601.0
53.5611 563.0
53.8452 667.0
54.1293 623.0
54.4134 594.0
54.6975 587.0
54.9816 564.0
55.2657 522.0
55.5498 636.0
55.8338 635.0
56.1179 596.0
56.402 619.0
56.6861 596.0
56.9702 598.0
57.2543 576.0
57.5384 571.0
57.8225 488.0
58.1066 511.0
58.3907 506.0
58.6748 495.0
58.9589 520.0
59.2429 550.0
59.527 575.0
59.8111 604.0
60.0952 545.0
60.3793 493.0
60.6634 558.0
60.9475 537.0
61.2316 504.0
61.5157 538.0
61.7998 547.0
62.0839 521.0
62.368 488.0
62.652 506.0
62.9361 502.0
63.2202 525.0
63.5043 538.0
63.7884 534.0
64.0725 543.0
64.3566 481.0
64.6407 504.0
64.9248 507.0
65.2089 554.0
65.493 514.0
65.7771 467.0
66.0611 483.0
66.3452 533.0
66.6293 492.0
66.9134 567.0
67.1975 541.0
67.4816 570.0
67.7657 538.0
68.0498 489.0
68.3339 520.0
68.618 492.0
68.9021 496.0
69.1862 481.0
69.4702 450.0
69.7543 451.0
70.0384 456.0
70.3225 492.0
70.6066 493.0
70.8907 528.0
71.1748 480.0
71.4589 477.0
71.743 450.0
72.0271 434.0
72.3112 446.0
72.5952 439.0
72.8793 424.0
73.1634 456.0
73.4475 412.0
73.7316 442.0
74.0157 435.0
74.2998 409.0
74.5839 404.0
74.868 403.0
75.1521 422.0
75.4362 474.0
75.7203 420.0
76.0043 431.0
76.2884 411.0
76.5725 450.0
76.8566 401.0
77.1407 392.0
77.4248 371.0
77.7089 336.0
77.993 407.0
78.2771 384.0
78.5612 358.0
78.8453 400.0
79.1294 375.0
79.4134 368.0
79.6975 334.0
79.9816 355.0
80.2657 372.0
80.5498 351.0
80.8339 344.0
81.118 363.0
81.4021 353.0
81.6862 332.0
81.9703 313.0
82.2544 324.0
82.5385 320.0
82.8225 322.0
83.1066 318.0
83.3907 308.0
83.6748 329.0
83.9589 304.0
84.243 280.0
84.5271 294.0
84.8112 283.0
85.0953 273.0
85.3794 258.0
85.6635 292.0
85.9476 270.0
86.2316 276.0
86.5157 261.0
86.7998 252.0
87.0839 242.0
87.368 243.0
87.6521 257.0
87.9362 272.0
88.2203 270.0
88.5044 243.0
88.7885 222.0
89.0726 263.0
89.3567 238.0
89.6407 275.0
89.9248 267.0
89.9415 251.0