Folder: bachelor_thesis/code/XRD_Analysis/External Sources/Alex_SAPO (part 5)

File: 20230311_SAPO-18_230301_newauto_calc550C.xy
4.98146 4413.0
5.26555 4265.0
5.54964 3824.0
5.83373 3642.0
6.11782 3481.0
6.40191 3303.0
6.68601 3126.0
6.9701 3131.0
7.25419 3046.0
7.53828 2883.0
7.82237 2783.0
8.10646 2655.0
8.39055 2769.0
8.67465 2781.0
8.95874 2873.0
9.24283 4459.0
9.52692 36232.0
9.81101 5002.0
10.0951 3041.0
10.3792 3476.0
10.6633 7070.0
10.9474 2984.0
11.2315 2611.0
11.5156 2378.0
11.7997 2201.0
12.0837 2157.0
12.3678 2285.0
12.6519 2550.0
12.936 8089.0
13.2201 2598.0
13.5042 4014.0
13.7883 2514.0
14.0724 2494.0
14.3565 2033.0
14.6406 2093.0
14.9247 2242.0
15.2088 2163.0
15.4928 2262.0
15.7769 2502.0
16.061 5860.0
16.3451 3722.0
16.6292 3126.0
16.9133 7225.0
17.1974 7158.0
17.4815 5228.0
17.7656 3225.0
18.0497 2790.0
18.3338 2657.0
18.6179 2550.0
18.9019 2867.0
19.186 4216.0
19.4701 3191.0
19.7542 4445.0
20.0383 4322.0
20.3224 4549.0
20.6065 7114.0
20.8906 5198.0
21.1747 5072.0
21.4588 8507.0
21.7429 4249.0
22.0269 3534.0
22.311 3434.0
22.5951 4150.0
22.8792 3784.0
23.1633 4745.0
23.4474 4296.0
23.7315 5286.0
24.0156 10303.0
24.2997 6482.0
24.5838 4397.0
24.8679 4031.0
25.152 4240.0
25.436 4582.0
25.7201 4646.0
26.0042 7108.0
26.2883 6264.0
26.5724 6437.0
26.8565 4328.0
27.1406 4187.0
27.4247 4118.0
27.7088 4567.0
27.9929 6179.0
28.277 5693.0
28.5611 4488.0
28.8451 3996.0
29.1292 3873.0
29.4133 4288.0
29.6974 5039.0
29.9815 5088.0
30.2656 5372.0
30.5497 5897.0
30.8338 6296.0
31.1179 8149.0
31.402 7950.0
31.6861 4994.0
31.9702 4761.0
32.2542 4867.0
32.5383 5194.0
32.8224 4698.0
33.1065 4611.0
33.3906 3541.0
33.6747 3008.0
33.9588 2906.0
34.2429 2671.0
34.527 2677.0
34.8111 2599.0
35.0952 2555.0
35.3793 2378.0
35.6633 2335.0
35.9474 2248.0
36.2315 2436.0
36.5156 2403.0
36.7997 2172.0
37.0838 2067.0
37.3679 1941.0
37.652 1930.0
37.9361 1847.0
38.2202 1864.0
38.5043 1884.0
38.7884 1894.0
39.0724 2038.0
39.3565 2044.0
39.6406 2071.0
39.9247 1937.0
40.2088 1967.0
40.4929 1815.0
40.777 1846.0
41.0611 1897.0
41.3452 1903.0
41.6293 2065.0
41.9134 1998.0
42.1975 1973.0
42.4815 1891.0
42.7656 1826.0
43.0497 1927.0
43.3338 2066.0
43.6179 1966.0
43.902 1848.0
44.1861 1853.0
44.4702 1801.0
44.7543 1826.0
45.0384 1811.0
45.3225 1783.0
45.6066 1818.0
45.8906 1765.0
46.1747 1720.0
46.4588 1740.0
46.7429 1663.0
47.027 1755.0
47.3111 1683.0
47.5952 1685.0
47.8793 1690.0
48.1634 1801.0
48.4475 1629.0
48.7316 1717.0
49.0156 1984.0
49.2997 2185.0
49.5838 2207.0
49.8679 1997.0
50.152 1936.0
50.4361 1941.0
50.7202 1990.0
51.0043 2008.0
51.2884 1928.0
51.5725 1849.0
51.8566 1887.0
52.1407 1766.0
52.4247 1754.0
52.7088 1786.0
52.9929 1703.0
53.277 1726.0
53.5611 1782.0
53.8452 1757.0
54.1293 1691.0
54.4134 1634.0
54.6975 1682.0
54.9816 1650.0
55.2657 1570.0
55.5498 1707.0
55.8338 1827.0
56.1179 1734.0
56.402 1784.0
56.6861 1664.0
56.9702 1571.0
57.2543 1551.0
57.5384 1560.0
57.8225 1497.0
58.1066 1568.0
58.3907 1412.0
58.6748 1507.0
58.9589 1504.0
59.2429 1524.0
59.527 1663.0
59.8111 1645.0
60.0952 1558.0
60.3793 1489.0
60.6634 1582.0
60.9475 1491.0
61.2316 1523.0
61.5157 1552.0
61.7998 1572.0
62.0839 1427.0
62.368 1539.0
62.652 1439.0
62.9361 1382.0
63.2202 1429.0
63.5043 1498.0
63.7884 1506.0
64.0725 1408.0
64.3566 1512.0
64.6407 1490.0
64.9248 1396.0
65.2089 1410.0
65.493 1360.0
65.7771 1441.0
66.0611 1410.0
66.3452 1432.0
66.6293 1382.0
66.9134 1485.0
67.1975 1555.0
67.4816 1469.0
67.7657 1445.0
68.0498 1436.0
68.3339 1328.0
68.618 1340.0
68.9021 1299.0
69.1862 1377.0
69.4702 1364.0
69.7543 1290.0
70.0384 1308.0
70.3225 1342.0
70.6066 1469.0
70.8907 1338.0
71.1748 1357.0
71.4589 1322.0
71.743 1241.0
72.0271 1243.0
72.3112 1221.0
72.5952 1289.0
72.8793 1296.0
73.1634 1353.0
73.4475 1302.0
73.7316 1234.0
74.0157 1261.0
74.2998 1235.0
74.5839 1198.0
74.868 1202.0
75.1521 1071.0
75.4362 1225.0
75.7203 1224.0
76.0043 1193.0
76.2884 1209.0
76.5725 1215.0
76.8566 1085.0
77.1407 1121.0
77.4248 1083.0
77.7089 1054.0
77.993 1150.0
78.2771 1088.0
78.5612 1058.0
78.8453 1047.0
79.1294 1023.0
79.4134 991.0
79.6975 958.0
79.9816 1028.0
80.2657 950.0
80.5498 934.0
80.8339 959.0
81.118 904.0
81.4021 958.0
81.6862 911.0
81.9703 867.0
82.2544 857.0
82.5385 872.0
82.8225 872.0
83.1066 816.0
83.3907 890.0
83.6748 768.0
83.9589 835.0
84.243 814.0
84.5271 823.0
84.8112 791.0
85.0953 780.0
85.3794 810.0
85.6635 792.0
85.9476 803.0
86.2316 703.0
86.5157 765.0
86.7998 748.0
87.0839 743.0
87.368 752.0
87.6521 742.0
87.9362 756.0
88.2203 701.0
88.5044 710.0
88.7885 708.0
89.0726 770.0
89.3567 667.0
89.6407 724.0
89.9248 675.0
89.9583 658.0

File: 20230311_SAPO-18_230301_oldaouto_c_calc550c.xy
4.98146 4391.0
5.26555 4083.0
5.54964 3757.0
5.83373 3632.0
6.11782 3414.0
6.40191 3407.0
6.68601 3117.0
6.9701 3070.0
7.25419 2882.0
7.53828 2786.0
7.82237 2744.0
8.10646 2680.0
8.39055 2600.0
8.67465 2666.0
8.95874 2687.0
9.24283 4404.0
9.52692 29957.0
9.81101 5530.0
10.0951 3151.0
10.3792 3364.0
10.6633 6531.0
10.9474 2994.0
11.2315 2380.0
11.5156 2220.0
11.7997 2081.0
12.0837 2098.0
12.3678 2147.0
12.6519 2468.0
12.936 7236.0
13.2201 2431.0
13.5042 3665.0
13.7883 2486.0
14.0724 2248.0
14.3565 2015.0
14.6406 1999.0
14.9247 2028.0
15.2088 1960.0
15.4928 2032.0
15.7769 2394.0
16.061 5235.0
16.3451 3696.0
16.6292 2872.0
16.9133 6579.0
17.1974 6836.0
17.4815 4723.0
17.7656 3007.0
18.0497 2548.0
18.3338 2491.0
18.6179 2325.0
18.9019 2632.0
19.186 3852.0
19.4701 2993.0
19.7542 4049.0
20.0383 4264.0
20.3224 5847.0
20.6065 7662.0
20.8906 5470.0
21.1747 5622.0
21.4588 11167.0
21.7429 4901.0
22.0269 3678.0
22.311 3735.0
22.5951 4175.0
22.8792 3970.0
23.1633 4408.0
23.4474 4083.0
23.7315 4840.0
24.0156 9536.0
24.2997 6055.0
24.5838 4005.0
24.8679 3582.0
25.152 3751.0
25.436 4231.0
25.7201 4397.0
26.0042 6563.0
26.2883 5869.0
26.5724 6158.0
26.8565 4056.0
27.1406 3847.0
27.4247 3776.0
27.7088 4173.0
27.9929 5605.0
28.277 5584.0
28.5611 4041.0
28.8451 3688.0
29.1292 3693.0
29.4133 3989.0
29.6974 4717.0
29.9815 4870.0
30.2656 5133.0
30.5497 5322.0
30.8338 6154.0
31.1179 7844.0
31.402 7366.0
31.6861 4680.0
31.9702 4470.0
32.2542 4202.0
32.5383 4791.0
32.8224 4436.0
33.1065 4244.0
33.3906 3385.0
33.6747 2949.0
33.9588 2839.0
34.2429 2453.0
34.527 2665.0
34.8111 2394.0
35.0952 2570.0
35.3793 2597.0
35.6633 2626.0
35.9474 2291.0
36.2315 2300.0
36.5156 2256.0
36.7997 2122.0
37.0838 1975.0
37.3679 1860.0
37.652 1877.0
37.9361 1769.0
38.2202 1799.0
38.5043 1729.0
38.7884 1728.0
39.0724 1906.0
39.3565 1950.0
39.6406 1959.0
39.9247 1815.0
40.2088 1668.0
40.4929 1824.0
40.777 1749.0
41.0611 1820.0
41.3452 1848.0
41.6293 1799.0
41.9134 1868.0
42.1975 1787.0
42.4815 1783.0
42.7656 1783.0
43.0497 1800.0
43.3338 1863.0
43.6179 1945.0
43.902 1866.0
44.1861 1807.0
44.4702 1721.0
44.7543 1735.0
45.0384 1752.0
45.3225 1691.0
45.6066 1624.0
45.8906 1641.0
46.1747 1677.0
46.4588 1639.0
46.7429 1562.0
47.027 1583.0
47.3111 1611.0
47.5952 1644.0
47.8793 1577.0
48.1634 1604.0
48.4475 1593.0
48.7316 1623.0
49.0156 1911.0
49.2997 2059.0
49.5838 2019.0
49.8679 1976.0
50.152 1869.0
50.4361 1849.0
50.7202 1901.0
51.0043 1856.0
51.2884 1829.0
51.5725 1768.0
51.8566 1686.0
52.1407 1677.0
52.4247 1664.0
52.7088 1636.0
52.9929 1568.0
53.277 1676.0
53.5611 1723.0
53.8452 1614.0
54.1293 1568.0
54.4134 1629.0
54.6975 1598.0
54.9816 1538.0
55.2657 1507.0
55.5498 1736.0
55.8338 1769.0
56.1179 1759.0
56.402 1697.0
56.6861 1642.0
56.9702 1578.0
57.2543 1438.0
57.5384 1376.0
57.8225 1397.0
58.1066 1457.0
58.3907 1443.0
58.6748 1428.0
58.9589 1380.0
59.2429 1370.0
59.527 1495.0
59.8111 1529.0
60.0952 1520.0
60.3793 1455.0
60.6634 1463.0
60.9475 1448.0
61.2316 1373.0
61.5157 1384.0
61.7998 1376.0
62.0839 1343.0
62.368 1344.0
62.652 1351.0
62.9361 1357.0
63.2202 1377.0
63.5043 1406.0
63.7884 1443.0
64.0725 1382.0
64.3566 1378.0
64.6407 1375.0
64.9248 1310.0
65.2089 1394.0
65.493 1244.0
65.7771 1326.0
66.0611 1370.0
66.3452 1363.0
66.6293 1359.0
66.9134 1433.0
67.1975 1428.0
67.4816 1376.0
67.7657 1319.0
68.0498 1313.0
68.3339 1267.0
68.618 1254.0
68.9021 1265.0
69.1862 1285.0
69.4702 1317.0
69.7543 1290.0
70.0384 1297.0
70.3225 1327.0
70.6066 1408.0
70.8907 1327.0
71.1748 1292.0
71.4589 1259.0
71.743 1152.0
72.0271 1264.0
72.3112 1266.0
72.5952 1237.0
72.8793 1239.0
73.1634 1241.0
73.4475 1169.0
73.7316 1156.0
74.0157 1145.0
74.2998 1132.0
74.5839 1156.0
74.868 1200.0
75.1521 1129.0
75.4362 1104.0
75.7203 1114.0
76.0043 1139.0
76.2884 1148.0
76.5725 1132.0
76.8566 1135.0
77.1407 1112.0
77.4248 1029.0
77.7089 1036.0
77.993 992.0
78.2771 1063.0
78.5612 1049.0
78.8453 1014.0
79.1294 1033.0
79.4134 992.0
79.6975 981.0
79.9816 965.0
80.2657 927.0
80.5498 954.0
80.8339 906.0
81.118 933.0
81.4021 892.0
81.6862 915.0
81.9703 909.0
82.2544 846.0
82.5385 809.0
82.8225 842.0
83.1066 841.0
83.3907 843.0
83.6748 840.0
83.9589 796.0
84.243 787.0
84.5271 701.0
84.8112 767.0
85.0953 743.0
85.3794 786.0
85.6635 731.0
85.9476 774.0
86.2316 708.0
86.5157 754.0
86.7998 678.0
87.0839 727.0
87.368 712.0
87.6521 670.0
87.9362 650.0
88.2203 688.0
88.5044 734.0
88.7885 755.0
89.0726 705.0
89.3567 646.0
89.6407 664.0
89.9248 653.0
89.9583 702.0

File: 20230311_SAPO-18_230301_oldauto_d_calc550C.xy
4.98146 4375.0
5.26555 4080.0
5.54964 3882.0
5.83373 3605.0
6.11782 3481.0
6.40191 3369.0
6.68601 3152.0
6.9701 3001.0
7.25419 2806.0
7.53828 2763.0
7.82237 2702.0
8.10646 2746.0
8.39055 2678.0
8.67465 2593.0
8.95874 2797.0
9.24283 4316.0
9.52692 33287.0
9.81101 5389.0
10.0951 2908.0
10.3792 3306.0
10.6633 7275.0
10.9474 2964.0
11.2315 2403.0
11.5156 2199.0
11.7997 2153.0
12.0837 2123.0
12.3678 2143.0
12.6519 2403.0
12.936 8028.0
13.2201 2529.0
13.5042 3784.0
13.7883 2388.0
14.0724 2406.0
14.3565 1968.0
14.6406 2010.0
14.9247 2096.0
15.2088 2010.0
15.4928 1953.0
15.7769 2433.0
16.061 5667.0
16.3451 3697.0
16.6292 2870.0
16.9133 6604.0
17.1974 7146.0
17.4815 5224.0
17.7656 3036.0
18.0497 2544.0
18.3338 2482.0
18.6179 2466.0
18.9019 2604.0
19.186 4186.0
19.4701 2976.0
19.7542 4220.0
20.0383 4171.0
20.3224 4838.0
20.6065 7454.0
20.8906 5382.0
21.1747 5328.0
21.4588 10947.0
21.7429 15279.0
22.0269 4147.0
22.311 3500.0
22.5951 4152.0
22.8792 3733.0
23.1633 4548.0
23.4474 4043.0
23.7315 4742.0
24.0156 10601.0
24.2997 6321.0
24.5838 4050.0
24.8679 3786.0
25.152 4010.0
25.436 4524.0
25.7201 4333.0
26.0042 6835.0
26.2883 5722.0
26.5724 6484.0
26.8565 4044.0
27.1406 3792.0
27.4247 3872.0
27.7088 4410.0
27.9929 6205.0
28.277 7270.0
28.5611 4287.0
28.8451 3701.0
29.1292 3642.0
29.4133 3940.0
29.6974 4689.0
29.9815 5017.0
30.2656 5310.0
30.5497 5581.0
30.8338 6299.0
31.1179 9476.0
31.402 8266.0
31.6861 4780.0
31.9702 4527.0
32.2542 4428.0
32.5383 5238.0
32.8224 4603.0
33.1065 4699.0
33.3906 3480.0
33.6747 2811.0
33.9588 2755.0
34.2429 2456.0
34.527 2648.0
34.8111 2418.0
35.0952 2521.0
35.3793 2365.0
35.6633 2902.0
35.9474 2842.0
36.2315 2393.0
36.5156 2378.0
36.7997 2291.0
37.0838 1950.0
37.3679 1898.0
37.652 1889.0
37.9361 1766.0
38.2202 1805.0
38.5043 1806.0
38.7884 1864.0
39.0724 1895.0
39.3565 2049.0
39.6406 1905.0
39.9247 1803.0
40.2088 1782.0
40.4929 1827.0
40.777 1796.0
41.0611 1804.0
41.3452 1840.0
41.6293 1963.0
41.9134 1975.0
42.1975 1992.0
42.4815 1842.0
42.7656 1781.0
43.0497 1754.0
43.3338 2011.0
43.6179 1927.0
43.902 1885.0
44.1861 1839.0
44.4702 1942.0
44.7543 1740.0
45.0384 1775.0
45.3225 1762.0
45.6066 1706.0
45.8906 1762.0
46.1747 1707.0
46.4588 1928.0
46.7429 1862.0
47.027 1770.0
47.3111 1664.0
47.5952 1723.0
47.8793 1657.0
48.1634 2326.0
48.4475 1765.0
48.7316 1756.0
49.0156 1977.0
49.2997 2234.0
49.5838 2263.0
49.8679 1943.0
50.152 1922.0
50.4361 1964.0
50.7202 1936.0
51.0043 1948.0
51.2884 1922.0
51.5725 1848.0
51.8566 1712.0
52.1407 1778.0
52.4247 1701.0
52.7088 1692.0
52.9929 1675.0
53.277 1691.0
53.5611 1889.0
53.8452 1687.0
54.1293 1607.0
54.4134 1658.0
54.6975 1584.0
54.9816 1592.0
55.2657 1645.0
55.5498 1834.0
55.8338 1836.0
56.1179 1895.0
56.402 1807.0
56.6861 1818.0
56.9702 1651.0
57.2543 1608.0
57.5384 1462.0
57.8225 1412.0
58.1066 1553.0
58.3907 1500.0
58.6748 1473.0
58.9589 1446.0
59.2429 1439.0
59.527 1624.0
59.8111 1854.0
60.0952 1545.0
60.3793 1477.0
60.6634 1447.0
60.9475 1427.0
61.2316 1513.0
61.5157 1651.0
61.7998 1459.0
62.0839 1432.0
62.368 1383.0
62.652 1400.0
62.9361 1393.0
63.2202 1322.0
63.5043 1380.0
63.7884 1444.0
64.0725 1514.0
64.3566 1458.0
64.6407 1513.0
64.9248 1498.0
65.2089 1451.0
65.493 1367.0
65.7771 1455.0
66.0611 1460.0
66.3452 1421.0
66.6293 1380.0
66.9134 1459.0
67.1975 1520.0
67.4816 1521.0
67.7657 1546.0
68.0498 1478.0
68.3339 1312.0
68.618 1390.0
68.9021 1482.0
69.1862 1397.0
69.4702 1408.0
69.7543 1407.0
70.0384 1331.0
70.3225 1399.0
70.6066 1447.0
70.8907 1404.0
71.1748 1373.0
71.4589 1275.0
71.743 1275.0
72.0271 1353.0
72.3112 1267.0
72.5952 1306.0
72.8793 1333.0
73.1634 1458.0
73.4475 1309.0
73.7316 1250.0
74.0157 1183.0
74.2998 1244.0
74.5839 1204.0
74.868 1132.0
75.1521 1227.0
75.4362 1156.0
75.7203 1191.0
76.0043 1149.0
76.2884 1178.0
76.5725 1093.0
76.8566 1099.0
77.1407 1079.0
77.4248 1084.0
77.7089 1081.0
77.993 1066.0
78.2771 1055.0
78.5612 1109.0
78.8453 1081.0
79.1294 1070.0
79.4134 1036.0
79.6975 1041.0
79.9816 1035.0
80.2657 1083.0
80.5498 1018.0
80.8339 1004.0
81.118 1090.0
81.4021 970.0
81.6862 990.0
81.9703 959.0
82.2544 843.0
82.5385 882.0
82.8225 874.0
83.1066 893.0
83.3907 770.0
83.6748 837.0
83.9589 832.0
84.243 826.0
84.5271 814.0
84.8112 844.0
85.0953 809.0
85.3794 757.0
85.6635 767.0
85.9476 785.0
86.2316 765.0
86.5157 738.0
86.7998 726.0
87.0839 784.0
87.368 723.0
87.6521 708.0
87.9362 731.0
88.2203 868.0
88.5044 822.0
88.7885 686.0
89.0726 655.0
89.3567 662.0
89.6407 683.0
89.9248 663.0
89.9583 649.0

File: 20230328_SAPO-18_230315_clean_calc550C_4h.xy
4.98146 1493.0
5.26555 1404.0
5.54964 1320.0
5.83373 1193.0
6.11782 1129.0
6.40191 1128.0
6.68601 979.0
6.9701 1003.0
7.25419 1022.0
7.53828 909.0
7.82237 930.0
8.10646 868.0
8.39055 857.0
8.67465 844.0
8.95874 889.0
9.24283 1281.0
9.52692 8881.0
9.81101 1730.0
10.0951 958.0
10.3792 943.0
10.6633 2223.0
10.9474 926.0
11.2315 737.0
11.5156 680.0
11.7997 632.0
12.0837 599.0
12.3678 645.0
12.6519 738.0
12.936 2022.0
13.2201 826.0
13.5042 1118.0
13.7883 748.0
14.0724 747.0
14.3565 609.0
14.6406 651.0
14.9247 665.0
15.2088 625.0
15.4928 627.0
15.7769 662.0
16.061 1412.0
16.3451 1203.0
16.6292 841.0
16.9133 1938.0
17.1974 2199.0
17.4815 1574.0
17.7656 908.0
18.0497 847.0
18.3338 775.0
18.6179 806.0
18.9019 774.0
19.186 1323.0
19.4701 930.0
19.7542 1333.0
20.0383 1256.0
20.3224 1385.0
20.6065 1870.0
20.8906 1755.0
21.1747 1428.0
21.4588 2556.0
21.7429 1371.0
22.0269 1060.0
22.311 1097.0
22.5951 1163.0
22.8792 1169.0
23.1633 1283.0
23.4474 1257.0
23.7315 1492.0
24.0156 3113.0
24.2997 1855.0
24.5838 1271.0
24.8679 1236.0
25.152 1154.0
25.436 1340.0
25.7201 1350.0
26.0042 1929.0
26.2883 1918.0
26.5724 1884.0
26.8565 1226.0
27.1406 1130.0
27.4247 1095.0
27.7088 1308.0
27.9929 1809.0
28.277 1546.0
28.5611 1226.0
28.8451 1082.0
29.1292 1076.0
29.4133 1146.0
29.6974 1306.0
29.9815 1450.0
30.2656 1614.0
30.5497 1744.0
30.8338 1867.0
31.1179 2469.0
31.402 2380.0
31.6861 1497.0
31.9702 1286.0
32.2542 1449.0
32.5383 1537.0
32.8224 1446.0
33.1065 1325.0
33.3906 1009.0
33.6747 911.0
33.9588 902.0
34.2429 794.0
34.527 825.0
34.8111 788.0
35.0952 700.0
35.3793 734.0
35.6633 691.0
35.9474 672.0
36.2315 694.0
36.5156 763.0
36.7997 724.0
37.0838 612.0
37.3679 574.0
37.652 560.0
37.9361 537.0
38.2202 528.0
38.5043 564.0
38.7884 541.0
39.0724 616.0
39.3565 656.0
39.6406 579.0
39.9247 581.0
40.2088 594.0
40.4929 550.0
40.777 545.0
41.0611 533.0
41.3452 569.0
41.6293 644.0
41.9134 585.0
42.1975 558.0
42.4815 539.0
42.7656 568.0
43.0497 601.0
43.3338 641.0
43.6179 585.0
43.902 561.0
44.1861 533.0
44.4702 596.0
44.7543 517.0
45.0384 539.0
45.3225 523.0
45.6066 513.0
45.8906 509.0
46.1747 508.0
46.4588 526.0
46.7429 538.0
47.027 451.0
47.3111 518.0
47.5952 514.0
47.8793 454.0
48.1634 539.0
48.4475 500.0
48.7316 521.0
49.0156 646.0
49.2997 762.0
49.5838 691.0
49.8679 618.0
50.152 605.0
50.4361 639.0
50.7202 633.0
51.0043 615.0
51.2884 625.0
51.5725 554.0
51.8566 523.0
52.1407 554.0
52.4247 560.0
52.7088 520.0
52.9929 569.0
53.277 522.0
53.5611 561.0
53.8452 517.0
54.1293 483.0
54.4134 492.0
54.6975 532.0
54.9816 509.0
55.2657 523.0
55.5498 600.0
55.8338 654.0
56.1179 544.0
56.402 539.0
56.6861 501.0
56.9702 493.0
57.2543 480.0
57.5384 427.0
57.8225 426.0
58.1066 448.0
58.3907 449.0
58.6748 474.0
58.9589 494.0
59.2429 513.0
59.527 531.0
59.8111 548.0
60.0952 483.0
60.3793 451.0
60.6634 491.0
60.9475 513.0
61.2316 459.0
61.5157 524.0
61.7998 489.0
62.0839 479.0
62.368 432.0
62.652 445.0
62.9361 486.0
63.2202 447.0
63.5043 446.0
63.7884 522.0
64.0725 506.0
64.3566 456.0
64.6407 450.0
64.9248 467.0
65.2089 443.0
65.493 444.0
65.7771 462.0
66.0611 438.0
66.3452 487.0
66.6293 513.0
66.9134 529.0
67.1975 560.0
67.4816 493.0
67.7657 473.0
68.0498 427.0
68.3339 402.0
68.618 399.0
68.9021 391.0
69.1862 449.0
69.4702 455.0
69.7543 412.0
70.0384 502.0
70.3225 512.0
70.6066 467.0
70.8907 501.0
71.1748 444.0
71.4589 430.0
71.743 420.0
72.0271 425.0
72.3112 439.0
72.5952 414.0
72.8793 444.0
73.1634 449.0
73.4475 401.0
73.7316 385.0
74.0157 416.0
74.2998 369.0
74.5839 407.0
74.868 380.0
75.1521 389.0
75.4362 414.0
75.7203 382.0
76.0043 407.0
76.2884 376.0
76.5725 365.0
76.8566 380.0
77.1407 325.0
77.4248 375.0
77.7089 356.0
77.993 386.0
78.2771 353.0
78.5612 375.0
78.8453 345.0
79.1294 338.0
79.4134 326.0
79.6975 316.0
79.9816 294.0
80.2657 330.0
80.5498 326.0
80.8339 351.0
81.118 307.0
81.4021 313.0
81.6862 292.0
81.9703 298.0
82.2544 350.0
82.5385 328.0
82.8225 306.0
83.1066 267.0
83.3907 276.0
83.6748 299.0
83.9589 300.0
84.243 295.0
84.5271 283.0
84.8112 269.0
85.0953 283.0
85.3794 294.0
85.6635 272.0
85.9476 227.0
86.2316 245.0
86.5157 247.0
86.7998 251.0
87.0839 261.0
87.368 262.0
87.6521 223.0
87.9362 223.0
88.2203 237.0
88.5044 250.0
88.7885 241.0
89.0726 221.0
89.3567 230.0
89.6407 242.0
89.9248 226.0
89.9415 204.0

File: 20230328_SAPO-18_230315_dirt_calc550C_4h.xy
4.98146 1524.0
5.26555 1529.0
5.54964 1409.0
5.83373 1307.0
6.11782 1267.0
6.40191 1206.0
6.68601 1081.0
6.9701 1048.0
7.25419 1007.0
7.53828 984.0
7.82237 971.0
8.10646 916.0
8.39055 886.0
8.67465 924.0
8.95874 930.0
9.24283 1432.0
9.52692 11114.0
9.81101 1820.0
10.0951 1031.0
10.3792 1001.0
10.6633 2497.0
10.9474 1051.0
11.2315 879.0
11.5156 732.0
11.7997 719.0
12.0837 692.0
12.3678 743.0
12.6519 831.0
12.936 2448.0
13.2201 914.0
13.5042 1252.0
13.7883 785.0
14.0724 867.0
14.3565 712.0
14.6406 632.0
14.9247 723.0
15.2088 681.0
15.4928 637.0
15.7769 852.0
16.061 1765.0
16.3451 1406.0
16.6292 985.0
16.9133 2204.0
17.1974 2532.0
17.4815 1806.0
17.7656 1021.0
18.0497 932.0
18.3338 845.0
18.6179 869.0
18.9019 928.0
19.186 1553.0
19.4701 1102.0
19.7542 1548.0
20.0383 1588.0
20.3224 1786.0
20.6065 2240.0
20.8906 2083.0
21.1747 1769.0
21.4588 3384.0
21.7429 1921.0
22.0269 1275.0
22.311 1234.0
22.5951 1448.0
22.8792 1400.0
23.1633 1542.0
23.4474 1489.0
23.7315 1641.0
24.0156 3447.0
24.2997 2384.0
24.5838 1410.0
24.8679 1375.0
25.152 1366.0
25.436 1518.0
25.7201 1499.0
26.0042 2136.0
26.2883 2097.0
26.5724 2160.0
26.8565 1346.0
27.1406 1361.0
27.4247 1343.0
27.7088 1505.0
27.9929 2066.0
28.277 1886.0
28.5611 1412.0
28.8451 1259.0
29.1292 1195.0
29.4133 1347.0
29.6974 1603.0
29.9815 1621.0
30.2656 1830.0
30.5497 1938.0
30.8338 1928.0
31.1179 2618.0
31.402 2692.0
31.6861 1557.0
31.9702 1465.0
32.2542 1522.0
32.5383 1794.0
32.8224 1549.0
33.1065 1464.0
33.3906 1079.0
33.6747 944.0
33.9588 988.0
34.2429 907.0
34.527 868.0
34.8111 816.0
35.0952 867.0
35.3793 836.0
35.6633 871.0
35.9474 839.0
36.2315 836.0
36.5156 845.0
36.7997 839.0
37.0838 747.0
37.3679 683.0
37.652 637.0
37.9361 618.0
38.2202 647.0
38.5043 636.0
38.7884 638.0
39.0724 682.0
39.3565 720.0
39.6406 656.0
39.9247 634.0
40.2088 648.0
40.4929 633.0
40.777 641.0
41.0611 629.0
41.3452 680.0
41.6293 704.0
41.9134 631.0
42.1975 690.0
42.4815 627.0
42.7656 605.0
43.0497 696.0
43.3338 692.0
43.6179 678.0
43.902 664.0
44.1861 630.0
44.4702 584.0
44.7543 629.0
45.0384 644.0
45.3225 615.0
45.6066 575.0
45.8906 615.0
46.1747 567.0
46.4588 580.0
46.7429 590.0
47.027 588.0
47.3111 594.0
47.5952 570.0
47.8793 586.0
48.1634 547.0
48.4475 569.0
48.7316 573.0
49.0156 719.0
49.2997 781.0
49.5838 806.0
49.8679 678.0
50.152 680.0
50.4361 672.0
50.7202 639.0
51.0043 672.0
51.2884 676.0
51.5725 656.0
51.8566 607.0
52.1407 594.0
52.4247 555.0
52.7088 539.0
52.9929 585.0
53.277 556.0
53.5611 564.0
53.8452 565.0
54.1293 563.0
54.4134 563.0
54.6975 585.0
54.9816 553.0
55.2657 557.0
55.5498 662.0
55.8338 638.0
56.1179 669.0
56.402 581.0
56.6861 642.0
56.9702 503.0
57.2543 560.0
57.5384 502.0
57.8225 525.0
58.1066 533.0
58.3907 502.0
58.6748 510.0
58.9589 504.0
59.2429 520.0
59.527 584.0
59.8111 542.0
60.0952 525.0
60.3793 524.0
60.6634 518.0
60.9475 505.0
61.2316 510.0
61.5157 532.0
61.7998 537.0
62.0839 501.0
62.368 491.0
62.652 506.0
62.9361 442.0
63.2202 520.0
63.5043 506.0
63.7884 509.0
64.0725 504.0
64.3566 493.0
64.6407 470.0
64.9248 477.0
65.2089 467.0
65.493 524.0
65.7771 447.0
66.0611 472.0
66.3452 536.0
66.6293 512.0
66.9134 524.0
67.1975 597.0
67.4816 542.0
67.7657 487.0
68.0498 491.0
68.3339 517.0
68.618 458.0
68.9021 500.0
69.1862 438.0
69.4702 472.0
69.7543 508.0
70.0384 513.0
70.3225 543.0
70.6066 502.0
70.8907 464.0
71.1748 505.0
71.4589 470.0
71.743 456.0
72.0271 444.0
72.3112 436.0
72.5952 471.0
72.8793 460.0
73.1634 488.0
73.4475 441.0
73.7316 443.0
74.0157 404.0
74.2998 399.0
74.5839 386.0
74.868 418.0
75.1521 434.0
75.4362 377.0
75.7203 384.0
76.0043 407.0
76.2884 394.0
76.5725 422.0
76.8566 378.0
77.1407 398.0
77.4248 362.0
77.7089 367.0
77.993 375.0
78.2771 384.0
78.5612 351.0
78.8453 379.0
79.1294 373.0
79.4134 361.0
79.6975 315.0
79.9816 315.0
80.2657 334.0
80.5498 340.0
80.8339 347.0
81.118 357.0
81.4021 302.0
81.6862 317.0
81.9703 322.0
82.2544 299.0
82.5385 275.0
82.8225 321.0
83.1066 303.0
83.3907 287.0
83.6748 294.0
83.9589 279.0
84.243 322.0
84.5271 284.0
84.8112 284.0
85.0953 238.0
85.3794 284.0
85.6635 266.0
85.9476 278.0
86.2316 290.0
86.5157 285.0
86.7998 258.0
87.0839 262.0
87.368 253.0
87.6521 250.0
87.9362 228.0
88.2203 263.0
88.5044 257.0
88.7885 247.0
89.0726 242.0
89.3567 252.0
89.6407 212.0
89.9248 250.0
89.9415 246.0