Folder: bachelor_thesis/code/XRD_Analysis/External Sources/Alex_SAPO

Note: README.md
# bachelor_thesis
Hydrogensiation of CO2 to higher alcohols

File: 20220430_SAPO-34_220427_calc650C.xy
4.98146 957.0
5.26555 888.0
5.54964 866.0
5.83373 781.0
6.11782 721.0
6.40191 691.0
6.68601 657.0
6.9701 622.0
7.25419 598.0
7.53828 560.0
7.82237 572.0
8.10646 527.0
8.39055 560.0
8.67465 559.0
8.95874 559.0
9.24283 764.0
9.52692 7398.0
9.81101 1699.0
10.0951 978.0
10.3792 723.0
10.6633 1102.0
10.9474 693.0
11.2315 599.0
11.5156 508.0
11.7997 512.0
12.0837 500.0
12.3678 535.0
12.6519 550.0
12.936 1702.0
13.2201 988.0
13.5042 743.0
13.7883 533.0
14.0724 597.0
14.3565 443.0
14.6406 477.0
14.9247 470.0
15.2088 463.0
15.4928 557.0
15.7769 556.0
16.061 953.0
16.3451 920.0
16.6292 662.0
16.9133 1098.0
17.1974 1145.0
17.4815 942.0
17.7656 798.0
18.0497 761.0
18.3338 564.0
18.6179 638.0
18.9019 647.0
19.186 1068.0
19.4701 800.0
19.7542 820.0
20.0383 897.0
20.3224 969.0
20.6065 1198.0
20.8906 2495.0
21.1747 1141.0
21.4588 1534.0
21.7429 904.0
22.0269 754.0
22.311 746.0
22.5951 870.0
22.8792 789.0
23.1633 956.0
23.4474 907.0
23.7315 927.0
24.0156 1366.0
24.2997 1090.0
24.5838 977.0
24.8679 899.0
25.152 1044.0
25.436 937.0
25.7201 930.0
26.0042 1167.0
26.2883 1402.0
26.5724 1160.0
26.8565 910.0
27.1406 837.0
27.4247 788.0
27.7088 862.0
27.9929 1029.0
28.277 955.0
28.5611 830.0
28.8451 774.0
29.1292 823.0
29.4133 836.0
29.6974 846.0
29.9815 898.0
30.2656 1065.0
30.5497 1147.0
30.8338 1505.0
31.1179 1656.0
31.402 1711.0
31.6861 1102.0
31.9702 937.0
32.2542 910.0
32.5383 918.0
32.8224 845.0
33.1065 803.0
33.3906 664.0
33.6747 551.0
33.9588 578.0
34.2429 550.0
34.527 521.0
34.8111 550.0
35.0952 532.0
35.3793 554.0
35.6633 478.0
35.9474 487.0
36.2315 425.0
36.5156 433.0
36.7997 461.0
37.0838 397.0
37.3679 365.0
37.652 394.0
37.9361 367.0
38.2202 361.0
38.5043 351.0
38.7884 352.0
39.0724 370.0
39.3565 395.0
39.6406 380.0
39.9247 346.0
40.2088 403.0
40.4929 368.0
40.777 383.0
41.0611 387.0
41.3452 376.0
41.6293 346.0
41.9134 317.0
42.1975 335.0
42.4815 357.0
42.7656 393.0
43.0497 377.0
43.3338 386.0
43.6179 387.0
43.902 362.0
44.1861 351.0
44.4702 358.0
44.7543 337.0
45.0384 339.0
45.3225 310.0
45.6066 372.0
45.8906 347.0
46.1747 332.0
46.4588 306.0
46.7429 321.0
47.027 334.0
47.3111 354.0
47.5952 292.0
47.8793 328.0
48.1634 301.0
48.4475 356.0
48.7316 324.0
49.0156 365.0
49.2997 424.0
49.5838 442.0
49.8679 357.0
50.152 382.0
50.4361 345.0
50.7202 383.0
51.0043 406.0
51.2884 400.0
51.5725 372.0
51.8566 377.0
52.1407 371.0
52.4247 358.0
52.7088 335.0
52.9929 362.0
53.277 348.0
53.5611 346.0
53.8452 332.0
54.1293 326.0
54.4134 348.0
54.6975 310.0
54.9816 314.0
55.2657 300.0
55.5498 333.0
55.8338 325.0
56.1179 317.0
56.402 307.0
56.6861 365.0
56.9702 303.0
57.2543 293.0
57.5384 307.0
57.8225 307.0
58.1066 286.0
58.3907 298.0
58.6748 307.0
58.9589 287.0
59.2429 298.0
59.527 306.0
59.8111 294.0
60.0952 315.0
60.3793 299.0
60.6634 298.0
60.9475 282.0
61.2316 305.0
61.5157 326.0
61.7998 291.0
62.0839 278.0
62.368 283.0
62.652 292.0
62.9361 269.0
63.2202 272.0
63.5043 283.0
63.7884 264.0
64.0725 245.0
64.3566 273.0
64.6407 258.0
64.9248 262.0
65.2089 272.0
65.493 236.0
65.7771 304.0
66.0611 288.0
66.3452 292.0
66.6293 267.0
66.9134 311.0
67.1975 293.0
67.4816 289.0
67.7657 285.0
68.0498 250.0
68.3339 269.0
68.618 287.0
68.9021 260.0
69.1862 278.0
69.4702 261.0
69.7543 256.0
70.0384 266.0
70.3225 253.0
70.6066 286.0
70.8907 261.0
71.1748 245.0
71.4589 256.0
71.743 244.0
72.0271 247.0
72.3112 268.0
72.5952 243.0
72.8793 260.0
73.1634 264.0
73.4475 251.0
73.7316 253.0
74.0157 224.0
74.2998 243.0
74.5839 219.0
74.868 248.0
75.1521 227.0
75.4362 219.0
75.7203 217.0
76.0043 210.0
76.2884 212.0
76.5725 219.0
76.8566 215.0
77.1407 198.0
77.4248 196.0
77.7089 247.0
77.993 203.0
78.2771 193.0
78.5612 196.0
78.8453 193.0
79.1294 197.0
79.4134 197.0
79.6975 204.0
79.9816 196.0
80.2657 185.0
80.5498 154.0
80.8339 192.0
81.118 178.0
81.4021 213.0
81.6862 193.0
81.9703 180.0
82.2544 196.0
82.5385 162.0
82.8225 185.0
83.1066 178.0
83.3907 161.0
83.6748 158.0
83.9589 152.0
84.243 147.0
84.5271 148.0
84.8112 177.0
85.0953 157.0
85.3794 159.0
85.6635 150.0
85.9476 157.0
86.2316 178.0
86.5157 142.0
86.7998 141.0
87.0839 158.0
87.368 147.0
87.6521 135.0
87.9362 131.0
88.2203 134.0
88.5044 148.0
88.7885 137.0
89.0726 127.0
89.3567 138.0
89.6407 132.0
89.9248 144.0
89.9415 107.0

File: 20220523_SAPO-34_30_220511_calc12h650C.xy
4.98146 803.0
5.26555 767.0
5.54964 720.0
5.83373 735.0
6.11782 688.0
6.40191 672.0
6.68601 604.0
6.9701 610.0
7.25419 618.0
7.53828 620.0
7.82237 563.0
8.10646 506.0
8.39055 497.0
8.67465 528.0
8.95874 564.0
9.24283 1104.0
9.52692 11665.0
9.81101 1252.0
10.0951 795.0
10.3792 716.0
10.6633 699.0
10.9474 625.0
11.2315 549.0
11.5156 503.0
11.7997 522.0
12.0837 523.0
12.3678 523.0
12.6519 663.0
12.936 2493.0
13.2201 635.0
13.5042 609.0
13.7883 467.0
14.0724 533.0
14.3565 467.0
14.6406 479.0
14.9247 438.0
15.2088 481.0
15.4928 584.0
15.7769 606.0
16.061 1848.0
16.3451 658.0
16.6292 672.0
16.9133 980.0
17.1974 846.0
17.4815 736.0
17.7656 990.0
18.0497 652.0
18.3338 598.0
18.6179 556.0
18.9019 660.0
19.186 887.0
19.4701 715.0
19.7542 692.0
20.0383 837.0
20.3224 946.0
20.6065 2469.0
20.8906 1222.0
21.1747 1042.0
21.4588 1058.0
21.7429 637.0
22.0269 696.0
22.311 668.0
22.5951 793.0
22.8792 760.0
23.1633 1084.0
23.4474 763.0
23.7315 818.0
24.0156 953.0
24.2997 949.0
24.5838 787.0
24.8679 1020.0
25.152 945.0
25.436 844.0
25.7201 849.0
26.0042 1485.0
26.2883 1035.0
26.5724 907.0
26.8565 755.0
27.1406 680.0
27.4247 684.0
27.7088 846.0
27.9929 778.0
28.277 801.0
28.5611 679.0
28.8451 689.0
29.1292 744.0
29.4133 691.0
29.6974 781.0
29.9815 864.0
30.2656 942.0
30.5497 1196.0
30.8338 1637.0
31.1179 1687.0
31.402 1089.0
31.6861 937.0
31.9702 786.0
32.2542 729.0
32.5383 775.0
32.8224 682.0
33.1065 607.0
33.3906 550.0
33.6747 570.0
33.9588 446.0
34.2429 501.0
34.527 479.0
34.8111 525.0
35.0952 453.0
35.3793 434.0
35.6633 412.0
35.9474 398.0
36.2315 417.0
36.5156 351.0
36.7997 329.0
37.0838 300.0
37.3679 307.0
37.652 300.0
37.9361 320.0
38.2202 322.0
38.5043 339.0
38.7884 313.0
39.0724 303.0
39.3565 292.0
39.6406 325.0
39.9247 303.0
40.2088 290.0
40.4929 298.0
40.777 298.0
41.0611 299.0
41.3452 294.0
41.6293 313.0
41.9134 266.0
42.1975 286.0
42.4815 310.0
42.7656 277.0
43.0497 316.0
43.3338 339.0
43.6179 331.0
43.902 269.0
44.1861 251.0
44.4702 297.0
44.7543 280.0
45.0384 274.0
45.3225 270.0
45.6066 255.0
45.8906 268.0
46.1747 241.0
46.4588 266.0
46.7429 283.0
47.027 250.0
47.3111 294.0
47.5952 241.0
47.8793 243.0
48.1634 308.0
48.4475 273.0
48.7316 287.0
49.0156 332.0
49.2997 335.0
49.5838 313.0
49.8679 302.0
50.152 350.0
50.4361 291.0
50.7202 345.0
51.0043 320.0
51.2884 278.0
51.5725 286.0
51.8566 308.0
52.1407 272.0
52.4247 273.0
52.7088 271.0
52.9929 259.0
53.277 272.0
53.5611 286.0
53.8452 261.0
54.1293 277.0
54.4134 253.0
54.6975 279.0
54.9816 243.0
55.2657 283.0
55.5498 269.0
55.8338 267.0
56.1179 248.0
56.402 273.0
56.6861 238.0
56.9702 271.0
57.2543 226.0
57.5384 267.0
57.8225 253.0
58.1066 254.0
58.3907 250.0
58.6748 235.0
58.9589 231.0
59.2429 223.0
59.527 269.0
59.8111 271.0
60.0952 239.0
60.3793 248.0
60.6634 271.0
60.9475 222.0
61.2316 233.0
61.5157 228.0
61.7998 251.0
62.0839 254.0
62.368 228.0
62.652 223.0
62.9361 246.0
63.2202 227.0
63.5043 248.0
63.7884 212.0
64.0725 228.0
64.3566 223.0
64.6407 220.0
64.9248 240.0
65.2089 255.0
65.493 220.0
65.7771 194.0
66.0611 199.0
66.3452 237.0
66.6293 240.0
66.9134 216.0
67.1975 219.0
67.4816 184.0
67.7657 221.0
68.0498 205.0
68.3339 204.0
68.618 213.0
68.9021 236.0
69.1862 203.0
69.4702 192.0
69.7543 220.0
70.0384 241.0
70.3225 210.0
70.6066 219.0
70.8907 189.0
71.1748 219.0
71.4589 195.0
71.743 199.0
72.0271 222.0
72.3112 195.0
72.5952 167.0
72.8793 192.0
73.1634 178.0
73.4475 189.0
73.7316 191.0
74.0157 182.0
74.2998 175.0
74.5839 194.0
74.868 164.0
75.1521 185.0
75.4362 162.0
75.7203 173.0
76.0043 176.0
76.2884 175.0
76.5725 184.0
76.8566 159.0
77.1407 172.0
77.4248 167.0
77.7089 169.0
77.993 189.0
78.2771 166.0
78.5612 162.0
78.8453 180.0
79.1294 148.0
79.4134 157.0
79.6975 186.0
79.9816 130.0
80.2657 166.0
80.5498 152.0
80.8339 132.0
81.118 166.0
81.4021 134.0
81.6862 132.0
81.9703 145.0
82.2544 141.0
82.5385 130.0
82.8225 141.0
83.1066 123.0
83.3907 145.0
83.6748 141.0
83.9589 135.0
84.243 131.0
84.5271 129.0
84.8112 137.0
85.0953 110.0
85.3794 132.0
85.6635 121.0
85.9476 139.0
86.2316 118.0
86.5157 113.0
86.7998 119.0
87.0839 112.0
87.368 115.0
87.6521 111.0
87.9362 111.0
88.2203 110.0
88.5044 121.0
88.7885 138.0
89.0726 113.0
89.3567 110.0
89.6407 110.0
89.9248 91.0
89.9415 99.0

File: 20220523_SAPO-34_70_220511_calc12h650C.xy
4.98146 803.0
5.26555 853.0
5.54964 720.0
5.83373 747.0
6.11782 680.0
6.40191 692.0
6.68601 617.0
6.9701 601.0
7.25419 584.0
7.53828 550.0
7.82237 528.0
8.10646 560.0
8.39055 521.0
8.67465 493.0
8.95874 503.0
9.24283 696.0
9.52692 13255.0
9.81101 720.0
10.0951 653.0
10.3792 604.0
10.6633 536.0
10.9474 561.0
11.2315 561.0
11.5156 522.0
11.7997 525.0
12.0837 517.0
12.3678 536.0
12.6519 612.0
12.936 3391.0
13.2201 637.0
13.5042 669.0
13.7883 456.0
14.0724 536.0
14.3565 445.0
14.6406 479.0
14.9247 432.0
15.2088 470.0
15.4928 497.0
15.7769 521.0
16.061 2415.0
16.3451 603.0
16.6292 691.0
16.9133 869.0
17.1974 810.0
17.4815 708.0
17.7656 1111.0
18.0497 686.0
18.3338 587.0
18.6179 599.0
18.9019 602.0
19.186 946.0
19.4701 617.0
19.7542 610.0
20.0383 637.0
20.3224 757.0
20.6065 2242.0
20.8906 1181.0
21.1747 964.0
21.4588 938.0
21.7429 645.0
22.0269 728.0
22.311 618.0
22.5951 670.0
22.8792 770.0
23.1633 1236.0
23.4474 819.0
23.7315 816.0
24.0156 883.0
24.2997 888.0
24.5838 887.0
24.8679 1118.0
25.152 1085.0
25.436 920.0
25.7201 901.0
26.0042 1700.0
26.2883 1012.0
26.5724 834.0
26.8565 812.0
27.1406 722.0
27.4247 720.0
27.7088 823.0
27.9929 799.0
28.277 964.0
28.5611 754.0
28.8451 748.0
29.1292 717.0
29.4133 752.0
29.6974 978.0
29.9815 940.0
30.2656 1125.0
30.5497 1344.0
30.8338 2230.0
31.1179 1973.0
31.402 1344.0
31.6861 979.0
31.9702 891.0
32.2542 806.0
32.5383 822.0
32.8224 645.0
33.1065 615.0
33.3906 628.0
33.6747 606.0
33.9588 568.0
34.2429 583.0
34.527 553.0
34.8111 652.0
35.0952 526.0
35.3793 474.0
35.6633 445.0
35.9474 490.0
36.2315 462.0
36.5156 395.0
36.7997 402.0
37.0838 375.0
37.3679 360.0
37.652 369.0
37.9361 351.0
38.2202 364.0
38.5043 344.0
38.7884 372.0
39.0724 379.0
39.3565 378.0
39.6406 399.0
39.9247 397.0
40.2088 377.0
40.4929 348.0
40.777 396.0
41.0611 349.0
41.3452 381.0
41.6293 378.0
41.9134 342.0
42.1975 370.0
42.4815 365.0
42.7656 381.0
43.0497 407.0
43.3338 409.0
43.6179 384.0
43.902 373.0
44.1861 366.0
44.4702 339.0
44.7543 351.0
45.0384 383.0
45.3225 381.0
45.6066 340.0
45.8906 329.0
46.1747 304.0
46.4588 330.0
46.7429 360.0
47.027 338.0
47.3111 338.0
47.5952 336.0
47.8793 345.0
48.1634 338.0
48.4475 361.0
48.7316 322.0
49.0156 402.0
49.2997 433.0
49.5838 384.0
49.8679 351.0
50.152 353.0
50.4361 353.0
50.7202 380.0
51.0043 447.0
51.2884 354.0
51.5725 320.0
51.8566 331.0
52.1407 371.0
52.4247 323.0
52.7088 319.0
52.9929 339.0
53.277 294.0
53.5611 366.0
53.8452 349.0
54.1293 323.0
54.4134 313.0
54.6975 317.0
54.9816 347.0
55.2657 348.0
55.5498 319.0
55.8338 332.0
56.1179 336.0
56.402 334.0
56.6861 356.0
56.9702 302.0
57.2543 326.0
57.5384 276.0
57.8225 313.0
58.1066 306.0
58.3907 305.0
58.6748 344.0
58.9589 278.0
59.2429 282.0
59.527 279.0
59.8111 289.0
60.0952 288.0
60.3793 280.0
60.6634 299.0
60.9475 305.0
61.2316 259.0
61.5157 300.0
61.7998 302.0
62.0839 285.0
62.368 252.0
62.652 305.0
62.9361 269.0
63.2202 267.0
63.5043 284.0
63.7884 242.0
64.0725 269.0
64.3566 251.0
64.6407 247.0
64.9248 264.0
65.2089 278.0
65.493 246.0
65.7771 322.0
66.0611 286.0
66.3452 289.0
66.6293 245.0
66.9134 320.0
67.1975 308.0
67.4816 255.0
67.7657 252.0
68.0498 254.0
68.3339 262.0
68.618 223.0
68.9021 233.0
69.1862 253.0
69.4702 250.0
69.7543 252.0
70.0384 266.0
70.3225 238.0
70.6066 254.0
70.8907 257.0
71.1748 215.0
71.4589 276.0
71.743 260.0
72.0271 241.0
72.3112 245.0
72.5952 230.0
72.8793 230.0
73.1634 229.0
73.4475 248.0
73.7316 232.0
74.0157 242.0
74.2998 212.0
74.5839 244.0
74.868 232.0
75.1521 243.0
75.4362 214.0
75.7203 222.0
76.0043 226.0
76.2884 216.0
76.5725 224.0
76.8566 167.0
77.1407 220.0
77.4248 223.0
77.7089 201.0
77.993 201.0
78.2771 205.0
78.5612 193.0
78.8453 174.0
79.1294 201.0
79.4134 164.0
79.6975 175.0
79.9816 179.0
80.2657 186.0
80.5498 200.0
80.8339 207.0
81.118 198.0
81.4021 185.0
81.6862 174.0
81.9703 182.0
82.2544 164.0
82.5385 153.0
82.8225 167.0
83.1066 144.0
83.3907 175.0
83.6748 163.0
83.9589 163.0
84.243 167.0
84.5271 133.0
84.8112 178.0
85.0953 157.0
85.3794 161.0
85.6635 173.0
85.9476 148.0
86.2316 145.0
86.5157 155.0
86.7998 146.0
87.0839 131.0
87.368 120.0
87.6521 135.0
87.9362 127.0
88.2203 133.0
88.5044 145.0
88.7885 123.0
89.0726 151.0
89.3567 132.0
89.6407 126.0
89.9248 134.0
89.9415 152.0

File: 20220623_La-Ni 2-1_1000C 6h air_5C ramp_20210523.xy
4.98146 1473.0
5.26555 1328.0
5.54964 1260.0
5.83373 1178.0
6.11782 1178.0
6.40191 1086.0
6.68601 1063.0
6.9701 1009.0
7.25419 1101.0
7.53828 966.0
7.82237 846.0
8.10646 870.0
8.39055 895.0
8.67465 872.0
8.95874 895.0
9.24283 955.0
9.52692 11485.0
9.81101 1063.0
10.0951 955.0
10.3792 911.0
10.6633 870.0
10.9474 750.0
11.2315 756.0
11.5156 800.0
11.7997 728.0
12.0837 696.0
12.3678 784.0
12.6519 821.0
12.936 2962.0
13.2201 792.0
13.5042 960.0
13.7883 656.0
14.0724 758.0
14.3565 614.0
14.6406 648.0
14.9247 688.0
15.2088 664.0
15.4928 669.0
15.7769 711.0
16.061 2028.0
16.3451 810.0
16.6292 897.0
16.9133 1291.0
17.1974 1179.0
17.4815 913.0
17.7656 1053.0
18.0497 825.0
18.3338 823.0
18.6179 797.0
18.9019 826.0
19.186 1291.0
19.4701 842.0
19.7542 1399.0
20.0383 992.0
20.3224 1167.0
20.6065 2086.0
20.8906 1690.0
21.1747 2965.0
21.4588 1824.0
21.7429 976.0
22.0269 1083.0
22.311 2108.0
22.5951 1133.0
22.8792 1069.0
23.1633 1596.0
23.4474 1161.0
23.7315 1243.0
24.0156 1482.0
24.2997 1388.0
24.5838 1441.0
24.8679 1624.0
25.152 1552.0
25.436 1344.0
25.7201 1518.0
26.0042 2391.0
26.2883 1667.0
26.5724 1470.0
26.8565 1334.0
27.1406 1315.0
27.4247 1211.0
27.7088 1414.0
27.9929 1428.0
28.277 1572.0
28.5611 1394.0
28.8451 1286.0
29.1292 1636.0
29.4133 1257.0
29.6974 1618.0
29.9815 2119.0
30.2656 1806.0
30.5497 2259.0
30.8338 2887.0
31.1179 3006.0
31.402 2341.0
31.6861 1668.0
31.9702 1640.0
32.2542 1371.0
32.5383 1415.0
32.8224 1287.0
33.1065 1121.0
33.3906 1132.0
33.6747 1309.0
33.9588 1037.0
34.2429 1004.0
34.527 1287.0
34.8111 1016.0
35.0952 942.0
35.3793 947.0
35.6633 841.0
35.9474 909.0
36.2315 872.0
36.5156 800.0
36.7997 720.0
37.0838 727.0
37.3679 657.0
37.652 675.0
37.9361 851.0
38.2202 643.0
38.5043 613.0
38.7884 684.0
39.0724 626.0
39.3565 724.0
39.6406 670.0
39.9247 712.0
40.2088 678.0
40.4929 642.0
40.777 683.0
41.0611 646.0
41.3452 667.0
41.6293 667.0
41.9134 637.0
42.1975 675.0
42.4815 605.0
42.7656 645.0
43.0497 731.0
43.3338 736.0
43.6179 745.0
43.902 723.0
44.1861 677.0
44.4702 657.0
44.7543 675.0
45.0384 705.0
45.3225 623.0
45.6066 672.0
45.8906 580.0
46.1747 642.0
46.4588 603.0
46.7429 560.0
47.027 623.0
47.3111 631.0
47.5952 703.0
47.8793 642.0
48.1634 667.0
48.4475 632.0
48.7316 657.0
49.0156 698.0
49.2997 825.0
49.5838 744.0
49.8679 708.0
50.152 636.0
50.4361 675.0
50.7202 641.0
51.0043 757.0
51.2884 666.0
51.5725 678.0
51.8566 637.0
52.1407 712.0
52.4247 609.0
52.7088 643.0
52.9929 663.0
53.277 691.0
53.5611 634.0
53.8452 686.0
54.1293 601.0
54.4134 612.0
54.6975 600.0
54.9816 639.0
55.2657 609.0
55.5498 642.0
55.8338 604.0
56.1179 633.0
56.402 643.0
56.6861 673.0
56.9702 656.0
57.2543 552.0
57.5384 589.0
57.8225 555.0
58.1066 568.0
58.3907 579.0
58.6748 607.0
58.9589 603.0
59.2429 558.0
59.527 589.0
59.8111 595.0
60.0952 604.0
60.3793 508.0
60.6634 563.0
60.9475 571.0
61.2316 589.0
61.5157 558.0
61.7998 538.0
62.0839 543.0
62.368 531.0
62.652 537.0
62.9361 520.0
63.2202 500.0
63.5043 552.0
63.7884 544.0
64.0725 494.0
64.3566 560.0
64.6407 532.0
64.9248 572.0
65.2089 505.0
65.493 559.0
65.7771 557.0
66.0611 450.0
66.3452 532.0
66.6293 581.0
66.9134 576.0
67.1975 602.0
67.4816 566.0
67.7657 527.0
68.0498 541.0
68.3339 536.0
68.618 503.0
68.9021 492.0
69.1862 510.0
69.4702 521.0
69.7543 563.0
70.0384 508.0
70.3225 537.0
70.6066 529.0
70.8907 527.0
71.1748 536.0
71.4589 532.0
71.743 540.0
72.0271 501.0
72.3112 509.0
72.5952 544.0
72.8793 496.0
73.1634 462.0
73.4475 455.0
73.7316 467.0
74.0157 461.0
74.2998 460.0
74.5839 475.0
74.868 481.0
75.1521 462.0
75.4362 441.0
75.7203 472.0
76.0043 435.0
76.2884 435.0
76.5725 459.0
76.8566 404.0
77.1407 417.0
77.4248 419.0
77.7089 453.0
77.993 448.0
78.2771 439.0
78.5612 403.0
78.8453 418.0
79.1294 460.0
79.4134 402.0
79.6975 360.0
79.9816 406.0
80.2657 352.0
80.5498 356.0
80.8339 388.0
81.118 398.0
81.4021 368.0
81.6862 364.0
81.9703 375.0
82.2544 318.0
82.5385 353.0
82.8225 349.0
83.1066 354.0
83.3907 301.0
83.6748 331.0
83.9589 310.0
84.243 308.0
84.5271 334.0
84.8112 322.0
85.0953 306.0
85.3794 285.0
85.6635 302.0
85.9476 283.0
86.2316 279.0
86.5157 300.0
86.7998 294.0
87.0839 275.0
87.368 257.0
87.6521 279.0
87.9362 256.0
88.2203 285.0
88.5044 266.0
88.7885 271.0
89.0726 256.0
89.3567 285.0
89.6407 219.0
89.9248 269.0
89.9415 274.0

File: 20220623_SAPO34_70_220608_calc650C20h.xy
4.98146 1533.0
5.26555 1448.0
5.54964 1366.0
5.83373 1211.0
6.11782 1160.0
6.40191 1146.0
6.68601 1015.0
6.9701 1041.0
7.25419 987.0
7.53828 953.0
7.82237 987.0
8.10646 895.0
8.39055 880.0
8.67465 873.0
8.95874 869.0
9.24283 975.0
9.52692 10527.0
9.81101 1031.0
10.0951 881.0
10.3792 821.0
10.6633 730.0
10.9474 774.0
11.2315 800.0
11.5156 734.0
11.7997 701.0
12.0837 703.0
12.3678 784.0
12.6519 770.0
12.936 2601.0
13.2201 871.0
13.5042 902.0
13.7883 626.0
14.0724 761.0
14.3565 649.0
14.6406 589.0
14.9247 601.0
15.2088 684.0
15.4928 648.0
15.7769 645.0
16.061 1648.0
16.3451 802.0
16.6292 794.0
16.9133 941.0
17.1974 966.0
17.4815 943.0
17.7656 1101.0
18.0497 822.0
18.3338 762.0
18.6179 767.0
18.9019 812.0
19.186 1276.0
19.4701 788.0
19.7542 828.0
20.0383 856.0
20.3224 980.0
20.6065 1632.0
20.8906 1881.0
21.1747 1269.0
21.4588 1262.0
21.7429 891.0
22.0269 972.0
22.311 924.0
22.5951 984.0
22.8792 1016.0
23.1633 1373.0
23.4474 1090.0
23.7315 1125.0
24.0156 1169.0
24.2997 1215.0
24.5838 1305.0
24.8679 1381.0
25.152 1549.0
25.436 1343.0
25.7201 1260.0
26.0042 1785.0
26.2883 1563.0
26.5724 1235.0
26.8565 1184.0
27.1406 1179.0
27.4247 1146.0
27.7088 1192.0
27.9929 1317.0
28.277 1456.0
28.5611 1150.0
28.8451 1180.0
29.1292 1168.0
29.4133 1224.0
29.6974 1397.0
29.9815 1390.0
30.2656 1568.0
30.5497 1934.0
30.8338 2803.0
31.1179 2846.0
31.402 2376.0
31.6861 1419.0
31.9702 1470.0
32.2542 1257.0
32.5383 1235.0
32.8224 1107.0
33.1065 1065.0
33.3906 980.0
33.6747 1035.0
33.9588 975.0
34.2429 912.0
34.527 949.0
34.8111 990.0
35.0952 836.0
35.3793 836.0
35.6633 807.0
35.9474 815.0
36.2315 817.0
36.5156 731.0
36.7997 676.0
37.0838 693.0
37.3679 651.0
37.652 633.0
37.9361 571.0
38.2202 618.0
38.5043 647.0
38.7884 647.0
39.0724 657.0
39.3565 631.0
39.6406 698.0
39.9247 716.0
40.2088 647.0
40.4929 646.0
40.777 620.0
41.0611 627.0
41.3452 641.0
41.6293 616.0
41.9134 645.0
42.1975 690.0
42.4815 698.0
42.7656 621.0
43.0497 686.0
43.3338 700.0
43.6179 680.0
43.902 645.0
44.1861 659.0
44.4702 650.0
44.7543 631.0
45.0384 622.0
45.3225 664.0
45.6066 627.0
45.8906 615.0
46.1747 588.0
46.4588 616.0
46.7429 618.0
47.027 616.0
47.3111 622.0
47.5952 585.0
47.8793 609.0
48.1634 623.0
48.4475 606.0
48.7316 638.0
49.0156 703.0
49.2997 860.0
49.5838 708.0
49.8679 689.0
50.152 673.0
50.4361 697.0
50.7202 680.0
51.0043 729.0
51.2884 691.0
51.5725 706.0
51.8566 633.0
52.1407 573.0
52.4247 651.0
52.7088 620.0
52.9929 602.0
53.277 599.0
53.5611 621.0
53.8452 638.0
54.1293 595.0
54.4134 648.0
54.6975 600.0
54.9816 605.0
55.2657 570.0
55.5498 621.0
55.8338 633.0
56.1179 609.0
56.402 623.0
56.6861 629.0
56.9702 627.0
57.2543 556.0
57.5384 592.0
57.8225 556.0
58.1066 534.0
58.3907 521.0
58.6748 600.0
58.9589 563.0
59.2429 531.0
59.527 531.0
59.8111 568.0
60.0952 639.0
60.3793 526.0
60.6634 536.0
60.9475 586.0
61.2316 540.0
61.5157 543.0
61.7998 612.0
62.0839 586.0
62.368 531.0
62.652 561.0
62.9361 556.0
63.2202 561.0
63.5043 552.0
63.7884 518.0
64.0725 551.0
64.3566 552.0
64.6407 561.0
64.9248 555.0
65.2089 567.0
65.493 545.0
65.7771 556.0
66.0611 589.0
66.3452 565.0
66.6293 540.0
66.9134 616.0
67.1975 597.0
67.4816 564.0
67.7657 565.0
68.0498 549.0
68.3339 560.0
68.618 510.0
68.9021 538.0
69.1862 507.0
69.4702 537.0
69.7543 533.0
70.0384 587.0
70.3225 518.0
70.6066 514.0
70.8907 495.0
71.1748 495.0
71.4589 504.0
71.743 465.0
72.0271 467.0
72.3112 475.0
72.5952 534.0
72.8793 458.0
73.1634 473.0
73.4475 464.0
73.7316 457.0
74.0157 450.0
74.2998 451.0
74.5839 436.0
74.868 447.0
75.1521 417.0
75.4362 460.0
75.7203 454.0
76.0043 443.0
76.2884 440.0
76.5725 434.0
76.8566 449.0
77.1407 402.0
77.4248 398.0
77.7089 438.0
77.993 442.0
78.2771 429.0
78.5612 423.0
78.8453 420.0
79.1294 401.0
79.4134 352.0
79.6975 401.0
79.9816 394.0
80.2657 369.0
80.5498 377.0
80.8339 412.0
81.118 346.0
81.4021 334.0
81.6862 333.0
81.9703 328.0
82.2544 353.0
82.5385 348.0
82.8225 326.0
83.1066 325.0
83.3907 317.0
83.6748 308.0
83.9589 341.0
84.243 311.0
84.5271 292.0
84.8112 329.0
85.0953 324.0
85.3794 305.0
85.6635 300.0
85.9476 295.0
86.2316 255.0
86.5157 295.0
86.7998 301.0
87.0839 315.0
87.368 290.0
87.6521 272.0
87.9362 271.0
88.2203 266.0
88.5044 291.0
88.7885 266.0
89.0726 303.0
89.3567 284.0
89.6407 299.0
89.9248 245.0
89.9415 298.0

File: 20220704_SAPO-34_70_220627_calc650C20h.xy
4.98146 1546.0
5.26555 1501.0
5.54964 1352.0
5.83373 1234.0
6.11782 1209.0
6.40191 1166.0
6.68601 1081.0
6.9701 1065.0
7.25419 1053.0
7.53828 1002.0
7.82237 971.0
8.10646 944.0
8.39055 956.0
8.67465 912.0
8.95874 916.0
9.24283 1094.0
9.52692 16133.0
9.81101 1054.0
10.0951 937.0
10.3792 867.0
10.6633 891.0
10.9474 828.0
11.2315 819.0
11.5156 815.0
11.7997 775.0
12.0837 866.0
12.3678 860.0
12.6519 826.0
12.936 3777.0
13.2201 961.0
13.5042 974.0
13.7883 722.0
14.0724 898.0
14.3565 694.0
14.6406 726.0
14.9247 728.0
15.2088 762.0
15.4928 709.0
15.7769 756.0
16.061 1975.0
16.3451 942.0
16.6292 951.0
16.9133 1083.0
17.1974 1158.0
17.4815 1078.0
17.7656 1482.0
18.0497 1078.0
18.3338 912.0
18.6179 931.0
18.9019 913.0
19.186 1621.0
19.4701 931.0
19.7542 955.0
20.0383 1141.0
20.3224 1265.0
20.6065 1769.0
20.8906 2599.0
21.1747 1581.0
21.4588 1512.0
21.7429 1045.0
22.0269 1129.0
22.311 1109.0
22.5951 1145.0
22.8792 1164.0
23.1633 1688.0
23.4474 1313.0
23.7315 1284.0
24.0156 1308.0
24.2997 1426.0
24.5838 1393.0
24.8679 1567.0
25.152 2244.0
25.436 1558.0
25.7201 1538.0
26.0042 1912.0
26.2883 2033.0
26.5724 1473.0
26.8565 1417.0
27.1406 1325.0
27.4247 1336.0
27.7088 1378.0
27.9929 1552.0
28.277 1798.0
28.5611 1519.0
28.8451 1352.0
29.1292 1284.0
29.4133 1343.0
29.6974 1607.0
29.9815 1516.0
30.2656 1785.0
30.5497 2156.0
30.8338 3521.0
31.1179 3220.0
31.402 2730.0
31.6861 1696.0
31.9702 1606.0
32.2542 1425.0
32.5383 1261.0
32.8224 1164.0
33.1065 1145.0
33.3906 1098.0
33.6747 1230.0
33.9588 1045.0
34.2429 1001.0
34.527 1029.0
34.8111 1225.0
35.0952 949.0
35.3793 978.0
35.6633 838.0
35.9474 810.0
36.2315 919.0
36.5156 779.0
36.7997 739.0
37.0838 748.0
37.3679 685.0
37.652 722.0
37.9361 724.0
38.2202 636.0
38.5043 678.0
38.7884 632.0
39.0724 647.0
39.3565 661.0
39.6406 719.0
39.9247 710.0
40.2088 729.0
40.4929 705.0
40.777 664.0
41.0611 617.0
41.3452 713.0
41.6293 635.0
41.9134 653.0
42.1975 643.0
42.4815 626.0
42.7656 650.0
43.0497 634.0
43.3338 719.0
43.6179 704.0
43.902 695.0
44.1861 688.0
44.4702 656.0
44.7543 626.0
45.0384 660.0
45.3225 642.0
45.6066 639.0
45.8906 605.0
46.1747 652.0
46.4588 613.0
46.7429 622.0
47.027 592.0
47.3111 576.0
47.5952 633.0
47.8793 689.0
48.1634 685.0
48.4475 635.0
48.7316 596.0
49.0156 664.0
49.2997 906.0
49.5838 696.0
49.8679 679.0
50.152 643.0
50.4361 696.0
50.7202 686.0
51.0043 731.0
51.2884 740.0
51.5725 690.0
51.8566 615.0
52.1407 620.0
52.4247 614.0
52.7088 595.0
52.9929 575.0
53.277 601.0
53.5611 583.0
53.8452 684.0
54.1293 617.0
54.4134 554.0
54.6975 604.0
54.9816 622.0
55.2657 539.0
55.5498 592.0
55.8338 611.0
56.1179 629.0
56.402 588.0
56.6861 594.0
56.9702 574.0
57.2543 592.0
57.5384 528.0
57.8225 507.0
58.1066 537.0
58.3907 513.0
58.6748 551.0
58.9589 554.0
59.2429 544.0
59.527 554.0
59.8111 543.0
60.0952 599.0
60.3793 533.0
60.6634 534.0
60.9475 545.0
61.2316 549.0
61.5157 509.0
61.7998 554.0
62.0839 553.0
62.368 491.0
62.652 529.0
62.9361 535.0
63.2202 539.0
63.5043 493.0
63.7884 523.0
64.0725 491.0
64.3566 512.0
64.6407 512.0
64.9248 497.0
65.2089 544.0
65.493 539.0
65.7771 517.0
66.0611 540.0
66.3452 512.0
66.6293 504.0
66.9134 572.0
67.1975 549.0
67.4816 552.0
67.7657 540.0
68.0498 516.0
68.3339 490.0
68.618 495.0
68.9021 495.0
69.1862 438.0
69.4702 469.0
69.7543 464.0
70.0384 440.0
70.3225 504.0
70.6066 506.0
70.8907 507.0
71.1748 492.0
71.4589 481.0
71.743 489.0
72.0271 505.0
72.3112 466.0
72.5952 412.0
72.8793 418.0
73.1634 427.0
73.4475 445.0
73.7316 399.0
74.0157 416.0
74.2998 396.0
74.5839 429.0
74.868 430.0
75.1521 433.0
75.4362 436.0
75.7203 442.0
76.0043 399.0
76.2884 401.0
76.5725 403.0
76.8566 387.0
77.1407 373.0
77.4248 384.0
77.7089 430.0
77.993 361.0
78.2771 380.0
78.5612 369.0
78.8453 370.0
79.1294 388.0
79.4134 344.0
79.6975 350.0
79.9816 365.0
80.2657 367.0
80.5498 367.0
80.8339 345.0
81.118 368.0
81.4021 322.0
81.6862 333.0
81.9703 294.0
82.2544 332.0
82.5385 325.0
82.8225 300.0
83.1066 314.0
83.3907 278.0
83.6748 314.0
83.9589 299.0
84.243 315.0
84.5271 301.0
84.8112 298.0
85.0953 317.0
85.3794 285.0
85.6635 305.0
85.9476 246.0
86.2316 284.0
86.5157 283.0
86.7998 267.0
87.0839 242.0
87.368 270.0
87.6521 268.0
87.9362 264.0
88.2203 260.0
88.5044 247.0
88.7885 267.0
89.0726 260.0
89.3567 253.0
89.6407 256.0
89.9248 233.0
89.9415 276.0