Folder: bachelor_thesis/code/XRD_Analysis/External Sources/Alex_SAPO (part 3)

File: 20220715_SAPO-34_CASALE_dried.xy
4.98146 1669.0
5.26555 1607.0
5.54964 1488.0
5.83373 1313.0
6.11782 1290.0
6.40191 1248.0
6.68601 1198.0
6.9701 1164.0
7.25419 1156.0
7.53828 1027.0
7.82237 1080.0
8.10646 1005.0
8.39055 998.0
8.67465 998.0
8.95874 907.0
9.24283 1027.0
9.52692 5853.0
9.81101 1018.0
10.0951 847.0
10.3792 902.0
10.6633 897.0
10.9474 830.0
11.2315 830.0
11.5156 891.0
11.7997 831.0
12.0837 868.0
12.3678 854.0
12.6519 865.0
12.936 1943.0
13.2201 920.0
13.5042 879.0
13.7883 850.0
14.0724 875.0
14.3565 785.0
14.6406 887.0
14.9247 889.0
15.2088 863.0
15.4928 923.0
15.7769 930.0
16.061 1585.0
16.3451 1028.0
16.6292 1072.0
16.9133 1083.0
17.1974 1178.0
17.4815 1257.0
17.7656 1878.0
18.0497 1324.0
18.3338 1346.0
18.6179 1407.0
18.9019 1476.0
19.186 1719.0
19.4701 1616.0
19.7542 1772.0
20.0383 1784.0
20.3224 2019.0
20.6065 2742.0
20.8906 2846.0
21.1747 2296.0
21.4588 2303.0
21.7429 2257.0
22.0269 2392.0
22.311 2327.0
22.5951 2301.0
22.8792 2193.0
23.1633 2714.0
23.4474 2176.0
23.7315 2091.0
24.0156 2129.0
24.2997 2069.0
24.5838 1965.0
24.8679 2222.0
25.152 2140.0
25.436 1693.0
25.7201 1722.0
26.0042 2174.0
26.2883 1836.0
26.5724 1625.0
26.8565 1396.0
27.1406 1516.0
27.4247 1347.0
27.7088 1511.0
27.9929 1438.0
28.277 1583.0
28.5611 1304.0
28.8451 1220.0
29.1292 1276.0
29.4133 1228.0
29.6974 1349.0
29.9815 1208.0
30.2656 1350.0
30.5497 1479.0
30.8338 3129.0
31.1179 1888.0
31.402 1482.0
31.6861 1225.0
31.9702 1120.0
32.2542 1059.0
32.5383 1015.0
32.8224 1043.0
33.1065 1040.0
33.3906 948.0
33.6747 1040.0
33.9588 906.0
34.2429 947.0
34.527 912.0
34.8111 1085.0
35.0952 872.0
35.3793 876.0
35.6633 852.0
35.9474 894.0
36.2315 931.0
36.5156 821.0
36.7997 817.0
37.0838 756.0
37.3679 759.0
37.652 760.0
37.9361 761.0
38.2202 750.0
38.5043 735.0
38.7884 735.0
39.0724 719.0
39.3565 686.0
39.6406 744.0
39.9247 698.0
40.2088 683.0
40.4929 651.0
40.777 712.0
41.0611 617.0
41.3452 594.0
41.6293 665.0
41.9134 605.0
42.1975 649.0
42.4815 659.0
42.7656 598.0
43.0497 638.0
43.3338 727.0
43.6179 707.0
43.902 664.0
44.1861 645.0
44.4702 602.0
44.7543 643.0
45.0384 627.0
45.3225 721.0
45.6066 641.0
45.8906 678.0
46.1747 605.0
46.4588 615.0
46.7429 595.0
47.027 643.0
47.3111 649.0
47.5952 633.0
47.8793 651.0
48.1634 639.0
48.4475 598.0
48.7316 588.0
49.0156 647.0
49.2997 681.0
49.5838 634.0
49.8679 533.0
50.152 602.0
50.4361 654.0
50.7202 616.0
51.0043 685.0
51.2884 613.0
51.5725 587.0
51.8566 555.0
52.1407 605.0
52.4247 551.0
52.7088 514.0
52.9929 556.0
53.277 567.0
53.5611 632.0
53.8452 579.0
54.1293 511.0
54.4134 554.0
54.6975 556.0
54.9816 509.0
55.2657 582.0
55.5498 518.0
55.8338 532.0
56.1179 531.0
56.402 549.0
56.6861 606.0
56.9702 512.0
57.2543 541.0
57.5384 496.0
57.8225 531.0
58.1066 528.0
58.3907 536.0
58.6748 550.0
58.9589 535.0
59.2429 473.0
59.527 566.0
59.8111 560.0
60.0952 586.0
60.3793 569.0
60.6634 553.0
60.9475 543.0
61.2316 548.0
61.5157 602.0
61.7998 594.0
62.0839 542.0
62.368 486.0
62.652 559.0
62.9361 564.0
63.2202 533.0
63.5043 541.0
63.7884 533.0
64.0725 493.0
64.3566 519.0
64.6407 536.0
64.9248 570.0
65.2089 492.0
65.493 501.0
65.7771 548.0
66.0611 571.0
66.3452 616.0
66.6293 592.0
66.9134 588.0
67.1975 614.0
67.4816 545.0
67.7657 543.0
68.0498 498.0
68.3339 504.0
68.618 482.0
68.9021 540.0
69.1862 523.0
69.4702 493.0
69.7543 475.0
70.0384 522.0
70.3225 492.0
70.6066 473.0
70.8907 480.0
71.1748 476.0
71.4589 482.0
71.743 488.0
72.0271 450.0
72.3112 432.0
72.5952 462.0
72.8793 440.0
73.1634 443.0
73.4475 449.0
73.7316 445.0
74.0157 392.0
74.2998 461.0
74.5839 467.0
74.868 415.0
75.1521 434.0
75.4362 462.0
75.7203 471.0
76.0043 473.0
76.2884 456.0
76.5725 441.0
76.8566 471.0
77.1407 449.0
77.4248 425.0
77.7089 425.0
77.993 430.0
78.2771 434.0
78.5612 434.0
78.8453 410.0
79.1294 426.0
79.4134 436.0
79.6975 391.0
79.9816 466.0
80.2657 407.0
80.5498 448.0
80.8339 400.0
81.118 366.0
81.4021 402.0
81.6862 426.0
81.9703 362.0
82.2544 370.0
82.5385 323.0
82.8225 347.0
83.1066 385.0
83.3907 332.0
83.6748 348.0
83.9589 338.0
84.243 326.0
84.5271 344.0
84.8112 350.0
85.0953 333.0
85.3794 302.0
85.6635 295.0
85.9476 273.0
86.2316 279.0
86.5157 311.0
86.7998 323.0
87.0839 294.0
87.368 288.0
87.6521 282.0
87.9362 323.0
88.2203 297.0
88.5044 310.0
88.7885 293.0
89.0726 290.0
89.3567 280.0
89.6407 258.0
89.9248 297.0
89.9415 266.0

File: 20220726_SAPO-34_30_2_220718_calc650C20h.xy
4.98146 1476.0
5.26555 1370.0
5.54964 1350.0
5.83373 1235.0
6.11782 1153.0
6.40191 1133.0
6.68601 1036.0
6.9701 1042.0
7.25419 1052.0
7.53828 1026.0
7.82237 929.0
8.10646 898.0
8.39055 949.0
8.67465 913.0
8.95874 902.0
9.24283 1062.0
9.52692 14334.0
9.81101 1099.0
10.0951 958.0
10.3792 846.0
10.6633 909.0
10.9474 855.0
11.2315 825.0
11.5156 805.0
11.7997 846.0
12.0837 762.0
12.3678 813.0
12.6519 822.0
12.936 3507.0
13.2201 916.0
13.5042 1024.0
13.7883 745.0
14.0724 854.0
14.3565 701.0
14.6406 637.0
14.9247 720.0
15.2088 720.0
15.4928 740.0
15.7769 768.0
16.061 2469.0
16.3451 870.0
16.6292 960.0
16.9133 1231.0
17.1974 1215.0
17.4815 1036.0
17.7656 1354.0
18.0497 971.0
18.3338 914.0
18.6179 955.0
18.9019 940.0
19.186 1441.0
19.4701 965.0
19.7542 1051.0
20.0383 1147.0
20.3224 1141.0
20.6065 2297.0
20.8906 2213.0
21.1747 1645.0
21.4588 1757.0
21.7429 1132.0
22.0269 1140.0
22.311 1134.0
22.5951 1140.0
22.8792 1257.0
23.1633 1863.0
23.4474 1326.0
23.7315 1370.0
24.0156 1503.0
24.2997 1509.0
24.5838 1583.0
24.8679 1637.0
25.152 1980.0
25.436 1541.0
25.7201 1584.0
26.0042 2472.0
26.2883 1816.0
26.5724 1524.0
26.8565 1487.0
27.1406 1369.0
27.4247 1231.0
27.7088 1371.0
27.9929 1411.0
28.277 1689.0
28.5611 1391.0
28.8451 1245.0
29.1292 1253.0
29.4133 1250.0
29.6974 1625.0
29.9815 1634.0
30.2656 1803.0
30.5497 2261.0
30.8338 3532.0
31.1179 3150.0
31.402 2569.0
31.6861 1732.0
31.9702 1606.0
32.2542 1401.0
32.5383 1331.0
32.8224 1132.0
33.1065 1120.0
33.3906 1002.0
33.6747 1188.0
33.9588 1050.0
34.2429 964.0
34.527 1026.0
34.8111 1090.0
35.0952 920.0
35.3793 873.0
35.6633 816.0
35.9474 851.0
36.2315 849.0
36.5156 777.0
36.7997 689.0
37.0838 743.0
37.3679 708.0
37.652 686.0
37.9361 606.0
38.2202 622.0
38.5043 661.0
38.7884 647.0
39.0724 684.0
39.3565 726.0
39.6406 727.0
39.9247 710.0
40.2088 735.0
40.4929 649.0
40.777 691.0
41.0611 638.0
41.3452 663.0
41.6293 675.0
41.9134 642.0
42.1975 660.0
42.4815 585.0
42.7656 668.0
43.0497 660.0
43.3338 699.0
43.6179 717.0
43.902 712.0
44.1861 649.0
44.4702 693.0
44.7543 650.0
45.0384 652.0
45.3225 641.0
45.6066 650.0
45.8906 644.0
46.1747 620.0
46.4588 605.0
46.7429 596.0
47.027 619.0
47.3111 579.0
47.5952 647.0
47.8793 656.0
48.1634 634.0
48.4475 616.0
48.7316 688.0
49.0156 731.0
49.2997 881.0
49.5838 695.0
49.8679 720.0
50.152 665.0
50.4361 656.0
50.7202 656.0
51.0043 709.0
51.2884 706.0
51.5725 648.0
51.8566 647.0
52.1407 618.0
52.4247 612.0
52.7088 596.0
52.9929 601.0
53.277 561.0
53.5611 637.0
53.8452 697.0
54.1293 590.0
54.4134 565.0
54.6975 647.0
54.9816 575.0
55.2657 599.0
55.5498 604.0
55.8338 611.0
56.1179 617.0
56.402 580.0
56.6861 664.0
56.9702 605.0
57.2543 550.0
57.5384 532.0
57.8225 508.0
58.1066 524.0
58.3907 553.0
58.6748 558.0
58.9589 536.0
59.2429 528.0
59.527 525.0
59.8111 549.0
60.0952 594.0
60.3793 564.0
60.6634 552.0
60.9475 488.0
61.2316 510.0
61.5157 631.0
61.7998 612.0
62.0839 567.0
62.368 587.0
62.652 536.0
62.9361 491.0
63.2202 539.0
63.5043 511.0
63.7884 545.0
64.0725 518.0
64.3566 522.0
64.6407 471.0
64.9248 497.0
65.2089 547.0
65.493 494.0
65.7771 521.0
66.0611 502.0
66.3452 487.0
66.6293 573.0
66.9134 622.0
67.1975 617.0
67.4816 511.0
67.7657 492.0
68.0498 508.0
68.3339 533.0
68.618 509.0
68.9021 488.0
69.1862 479.0
69.4702 512.0
69.7543 505.0
70.0384 506.0
70.3225 507.0
70.6066 534.0
70.8907 531.0
71.1748 501.0
71.4589 500.0
71.743 432.0
72.0271 479.0
72.3112 469.0
72.5952 469.0
72.8793 456.0
73.1634 446.0
73.4475 464.0
73.7316 446.0
74.0157 477.0
74.2998 416.0
74.5839 426.0
74.868 417.0
75.1521 430.0
75.4362 438.0
75.7203 430.0
76.0043 445.0
76.2884 418.0
76.5725 428.0
76.8566 362.0
77.1407 410.0
77.4248 381.0
77.7089 448.0
77.993 414.0
78.2771 381.0
78.5612 354.0
78.8453 414.0
79.1294 391.0
79.4134 403.0
79.6975 323.0
79.9816 329.0
80.2657 375.0
80.5498 368.0
80.8339 366.0
81.118 372.0
81.4021 335.0
81.6862 356.0
81.9703 326.0
82.2544 332.0
82.5385 324.0
82.8225 347.0
83.1066 309.0
83.3907 302.0
83.6748 289.0
83.9589 326.0
84.243 263.0
84.5271 283.0
84.8112 295.0
85.0953 321.0
85.3794 273.0
85.6635 316.0
85.9476 293.0
86.2316 274.0
86.5157 287.0
86.7998 286.0
87.0839 279.0
87.368 255.0
87.6521 280.0
87.9362 287.0
88.2203 280.0
88.5044 246.0
88.7885 246.0
89.0726 233.0
89.3567 280.0
89.6407 267.0
89.9248 238.0
89.9415 230.0

File: 20220730_SAPO-34_30_1_220725_calc650C.xy
4.98146 1450.0
5.26555 1331.0
5.54964 1224.0
5.83373 1276.0
6.11782 1136.0
6.40191 1112.0
6.68601 1023.0
6.9701 981.0
7.25419 1129.0
7.53828 992.0
7.82237 893.0
8.10646 894.0
8.39055 845.0
8.67465 900.0
8.95874 761.0
9.24283 926.0
9.52692 9694.0
9.81101 945.0
10.0951 847.0
10.3792 791.0
10.6633 792.0
10.9474 798.0
11.2315 737.0
11.5156 692.0
11.7997 724.0
12.0837 725.0
12.3678 657.0
12.6519 715.0
12.936 2626.0
13.2201 745.0
13.5042 930.0
13.7883 642.0
14.0724 665.0
14.3565 567.0
14.6406 587.0
14.9247 712.0
15.2088 595.0
15.4928 625.0
15.7769 636.0
16.061 1521.0
16.3451 747.0
16.6292 795.0
16.9133 1107.0
17.1974 965.0
17.4815 833.0
17.7656 941.0
18.0497 754.0
18.3338 753.0
18.6179 727.0
18.9019 710.0
19.186 1136.0
19.4701 804.0
19.7542 1699.0
20.0383 1104.0
20.3224 1894.0
20.6065 2085.0
20.8906 1603.0
21.1747 3534.0
21.4588 2728.0
21.7429 1117.0
22.0269 1023.0
22.311 1954.0
22.5951 1286.0
22.8792 1272.0
23.1633 1521.0
23.4474 1130.0
23.7315 1135.0
24.0156 1200.0
24.2997 1294.0
24.5838 1173.0
24.8679 1356.0
25.152 1282.0
25.436 1213.0
25.7201 1290.0
26.0042 2258.0
26.2883 1383.0
26.5724 1205.0
26.8565 1270.0
27.1406 1007.0
27.4247 1074.0
27.7088 1103.0
27.9929 1177.0
28.277 1314.0
28.5611 1154.0
28.8451 1194.0
29.1292 1719.0
29.4133 1125.0
29.6974 1426.0
29.9815 1958.0
30.2656 1557.0
30.5497 1888.0
30.8338 2291.0
31.1179 2548.0
31.402 2090.0
31.6861 1447.0
31.9702 1359.0
32.2542 1208.0
32.5383 1289.0
32.8224 1161.0
33.1065 998.0
33.3906 1024.0
33.6747 1226.0
33.9588 901.0
34.2429 851.0
34.527 1365.0
34.8111 881.0
35.0952 851.0
35.3793 1034.0
35.6633 977.0
35.9474 851.0
36.2315 802.0
36.5156 716.0
36.7997 653.0
37.0838 736.0
37.3679 654.0
37.652 680.0
37.9361 963.0
38.2202 596.0
38.5043 691.0
38.7884 623.0
39.0724 625.0
39.3565 610.0
39.6406 595.0
39.9247 591.0
40.2088 645.0
40.4929 566.0
40.777 618.0
41.0611 617.0
41.3452 654.0
41.6293 618.0
41.9134 611.0
42.1975 690.0
42.4815 651.0
42.7656 627.0
43.0497 707.0
43.3338 668.0
43.6179 692.0
43.902 636.0
44.1861 604.0
44.4702 583.0
44.7543 574.0
45.0384 617.0
45.3225 609.0
45.6066 596.0
45.8906 578.0
46.1747 583.0
46.4588 570.0
46.7429 576.0
47.027 520.0
47.3111 578.0
47.5952 633.0
47.8793 667.0
48.1634 568.0
48.4475 571.0
48.7316 605.0
49.0156 628.0
49.2997 726.0
49.5838 638.0
49.8679 628.0
50.152 574.0
50.4361 591.0
50.7202 678.0
51.0043 664.0
51.2884 648.0
51.5725 642.0
51.8566 596.0
52.1407 710.0
52.4247 607.0
52.7088 637.0
52.9929 541.0
53.277 580.0
53.5611 578.0
53.8452 616.0
54.1293 568.0
54.4134 545.0
54.6975 532.0
54.9816 598.0
55.2657 573.0
55.5498 613.0
55.8338 618.0
56.1179 616.0
56.402 596.0
56.6861 620.0
56.9702 587.0
57.2543 536.0
57.5384 539.0
57.8225 483.0
58.1066 474.0
58.3907 565.0
58.6748 693.0
58.9589 543.0
59.2429 554.0
59.527 501.0
59.8111 543.0
60.0952 567.0
60.3793 520.0
60.6634 538.0
60.9475 566.0
61.2316 496.0
61.5157 532.0
61.7998 513.0
62.0839 526.0
62.368 525.0
62.652 493.0
62.9361 535.0
63.2202 542.0
63.5043 532.0
63.7884 538.0
64.0725 538.0
64.3566 504.0
64.6407 509.0
64.9248 500.0
65.2089 522.0
65.493 543.0
65.7771 544.0
66.0611 542.0
66.3452 496.0
66.6293 529.0
66.9134 573.0
67.1975 534.0
67.4816 496.0
67.7657 535.0
68.0498 474.0
68.3339 524.0
68.618 479.0
68.9021 482.0
69.1862 461.0
69.4702 464.0
69.7543 433.0
70.0384 464.0
70.3225 450.0
70.6066 470.0
70.8907 453.0
71.1748 455.0
71.4589 442.0
71.743 463.0
72.0271 487.0
72.3112 443.0
72.5952 440.0
72.8793 470.0
73.1634 451.0
73.4475 434.0
73.7316 430.0
74.0157 429.0
74.2998 406.0
74.5839 455.0
74.868 423.0
75.1521 449.0
75.4362 445.0
75.7203 422.0
76.0043 444.0
76.2884 436.0
76.5725 407.0
76.8566 414.0
77.1407 409.0
77.4248 423.0
77.7089 387.0
77.993 386.0
78.2771 389.0
78.5612 369.0
78.8453 387.0
79.1294 434.0
79.4134 414.0
79.6975 385.0
79.9816 372.0
80.2657 358.0
80.5498 352.0
80.8339 361.0
81.118 355.0
81.4021 366.0
81.6862 339.0
81.9703 314.0
82.2544 309.0
82.5385 319.0
82.8225 322.0
83.1066 315.0
83.3907 301.0
83.6748 308.0
83.9589 328.0
84.243 313.0
84.5271 288.0
84.8112 316.0
85.0953 266.0
85.3794 293.0
85.6635 292.0
85.9476 261.0
86.2316 246.0
86.5157 286.0
86.7998 257.0
87.0839 271.0
87.368 260.0
87.6521 246.0
87.9362 262.0
88.2203 279.0
88.5044 247.0
88.7885 216.0
89.0726 282.0
89.3567 223.0
89.6407 253.0
89.9248 240.0
89.9415 271.0

File: 20220730_SAPO-34_30_2_220725_calc650C.xy
4.98146 1454.0
5.24884 1357.0
5.51622 1262.0
5.7836 1240.0
6.05098 1210.0
6.31836 1096.0
6.58574 1118.0
6.85312 1053.0
7.1205 1084.0
7.38788 2269.0
7.65526 962.0
7.92264 924.0
8.19002 947.0
8.4574 839.0
8.72478 844.0
8.99216 862.0
9.25954 1112.0
9.52692 12401.0
9.7943 1058.0
10.0617 971.0
10.3291 915.0
10.5964 855.0
10.8638 798.0
11.1312 752.0
11.3986 800.0
11.666 773.0
11.9333 747.0
12.2007 746.0
12.4681 777.0
12.7355 932.0
13.0029 1657.0
13.2702 840.0
13.5376 892.0
13.805 657.0
14.0724 725.0
14.3398 651.0
14.6071 711.0
14.8745 778.0
15.1419 663.0
15.4093 694.0
15.6767 724.0
15.944 895.0
16.2114 1103.0
16.4788 789.0
16.7462 1058.0
17.0136 1283.0
17.2809 990.0
17.5483 988.0
17.8157 1027.0
18.0831 792.0
18.3505 810.0
18.6179 808.0
18.8852 812.0
19.1526 1325.0
19.42 872.0
19.6874 1569.0
19.9548 1120.0
20.2221 2135.0
20.4895 1902.0
20.7569 3880.0
21.0243 1813.0
21.2917 2813.0
21.559 2037.0
21.8264 1197.0
22.0938 1290.0
22.3612 2934.0
22.6286 1399.0
22.8959 1441.0
23.1633 1786.0
23.4307 1224.0
23.6981 1270.0
23.9655 1408.0
24.2328 1386.0
24.5002 1370.0
24.7676 1395.0
25.035 1461.0
25.3024 1195.0
25.5697 1261.0
25.8371 1833.0
26.1045 2347.0
26.3719 1366.0
26.6393 1307.0
26.9066 1259.0
27.174 1230.0
27.4414 1165.0
27.7088 1166.0
27.9762 1284.0
28.2435 1450.0
28.5109 1246.0
28.7783 1121.0
29.0457 1672.0
29.3131 1170.0
29.5804 1218.0
29.8478 1375.0
30.1152 1587.0
30.3826 1719.0
30.65 1986.0
30.9173 2230.0
31.1847 2766.0
31.4521 1818.0
31.7195 1396.0
31.9869 1347.0
32.2542 1257.0
32.5216 1263.0
32.789 1136.0
33.0564 955.0
33.3238 973.0
33.5911 978.0
33.8585 886.0
34.1259 806.0
34.3933 940.0
34.6607 883.0
34.928 821.0
35.1954 906.0
35.4628 1064.0
35.7302 925.0
35.9976 797.0
36.265 771.0
36.5323 712.0
36.7997 635.0
37.0671 708.0
37.3345 652.0
37.6019 606.0
37.8692 773.0
38.1366 591.0
38.404 573.0
38.6714 617.0
38.9388 596.0
39.2061 619.0
39.4735 569.0
39.7409 589.0
40.0083 576.0
40.2757 555.0
40.543 603.0
40.8104 579.0
41.0778 544.0
41.3452 542.0
41.6126 545.0
41.8799 573.0
42.1473 584.0
42.4147 573.0
42.6821 606.0
42.9495 603.0
43.2168 578.0
43.4842 646.0
43.7516 592.0
44.019 549.0
44.2864 557.0
44.5537 586.0
44.8211 549.0
45.0885 549.0
45.3559 502.0
45.6233 505.0
45.8906 536.0
46.158 533.0
46.4254 557.0
46.6928 516.0
46.9602 507.0
47.2275 514.0
47.4949 480.0
47.7623 572.0
48.0297 509.0
48.2971 569.0
48.5644 512.0
48.8318 541.0
49.0992 606.0
49.3666 646.0
49.634 518.0
49.9013 543.0
50.1687 544.0
50.4361 557.0
50.7035 532.0
50.9709 592.0
51.2382 527.0
51.5056 566.0
51.773 571.0
52.0404 481.0
52.3078 508.0
52.5751 498.0
52.8425 443.0
53.1099 509.0
53.3773 502.0
53.6447 524.0
53.9121 563.0
54.1794 540.0
54.4468 470.0
54.7142 492.0
54.9816 533.0
55.249 485.0
55.5163 565.0
55.7837 570.0
56.0511 520.0
56.3185 507.0
56.5859 510.0
56.8532 542.0
57.1206 487.0
57.388 470.0
57.6554 436.0
57.9228 423.0
58.1901 447.0
58.4575 479.0
58.7249 543.0
58.9923 476.0
59.2597 482.0
59.527 496.0
59.7944 505.0
60.0618 506.0
60.3292 473.0
60.5966 481.0
60.8639 460.0
61.1313 453.0
61.3987 482.0
61.6661 413.0
61.9335 462.0
62.2008 483.0
62.4682 462.0
62.7356 443.0
63.003 447.0
63.2704 471.0
63.5377 501.0
63.8051 461.0
64.0725 480.0
64.3399 391.0
64.6073 457.0
64.8746 438.0
65.142 456.0
65.4094 457.0
65.6768 481.0
65.9442 439.0
66.2115 476.0
66.4789 427.0
66.7463 464.0
67.0137 470.0
67.2811 501.0
67.5484 440.0
67.8158 373.0
68.0832 434.0
68.3506 399.0
68.618 398.0
68.8853 433.0
69.1527 414.0
69.4201 366.0
69.6875 385.0
69.9549 451.0
70.2222 431.0
70.4896 393.0
70.757 394.0
71.0244 387.0
71.2918 400.0
71.5592 375.0
71.8265 389.0
72.0939 368.0
72.3613 347.0
72.6287 366.0
72.8961 333.0
73.1634 371.0
73.4308 362.0
73.6982 342.0
73.9656 376.0
74.233 342.0
74.5003 348.0
74.7677 335.0
75.0351 358.0
75.3025 347.0
75.5699 352.0
75.8372 338.0
76.1046 366.0
76.372 345.0
76.6394 345.0
76.9068 340.0
77.1741 360.0
77.4415 335.0
77.7089 342.0
77.9763 323.0
78.2437 349.0
78.511 345.0
78.7784 306.0
79.0458 285.0
79.3132 347.0
79.5806 302.0
79.8479 328.0
80.1153 293.0
80.3827 310.0
80.6501 279.0
80.9175 282.0
81.1848 301.0
81.4522 295.0
81.7196 316.0
81.987 280.0
82.2544 231.0
82.5217 250.0
82.7891 279.0
83.0565 256.0
83.1066 237.0

File: 20220919_SAPO-18_220908_calc550C_4h.xy
4.98146 1125.0
5.26555 1043.0
5.54964 989.0
5.83373 927.0
6.11782 882.0
6.40191 841.0
6.68601 789.0
6.9701 774.0
7.25419 772.0
7.53828 716.0
7.82237 721.0
8.10646 660.0
8.39055 695.0
8.67465 681.0
8.95874 680.0
9.24283 1069.0
9.52692 7360.0
9.81101 1324.0
10.0951 763.0
10.3792 763.0
10.6633 1757.0
10.9474 769.0
11.2315 571.0
11.5156 603.0
11.7997 564.0
12.0837 542.0
12.3678 507.0
12.6519 589.0
12.936 1751.0
13.2201 667.0
13.5042 908.0
13.7883 565.0
14.0724 574.0
14.3565 490.0
14.6406 444.0
14.9247 521.0
15.2088 524.0
15.4928 523.0
15.7769 578.0
16.061 1265.0
16.3451 882.0
16.6292 682.0
16.9133 1562.0
17.1974 1638.0
17.4815 1260.0
17.7656 667.0
18.0497 565.0
18.3338 555.0
18.6179 540.0
18.9019 644.0
19.186 930.0
19.4701 709.0
19.7542 976.0
20.0383 897.0
20.3224 1045.0
20.6065 1520.0
20.8906 1203.0
21.1747 1050.0
21.4588 2066.0
21.7429 1554.0
22.0269 741.0
22.311 725.0
22.5951 895.0
22.8792 848.0
23.1633 1002.0
23.4474 899.0
23.7315 1107.0
24.0156 2464.0
24.2997 1412.0
24.5838 884.0
24.8679 887.0
25.152 869.0
25.436 1058.0
25.7201 1002.0
26.0042 1570.0
26.2883 1343.0
26.5724 1526.0
26.8565 935.0
27.1406 901.0
27.4247 880.0
27.7088 995.0
27.9929 1446.0
28.277 1379.0
28.5611 934.0
28.8451 897.0
29.1292 853.0
29.4133 986.0
29.6974 1130.0
29.9815 1125.0
30.2656 1293.0
30.5497 1361.0
30.8338 1439.0
31.1179 2030.0
31.402 1917.0
31.6861 1056.0
31.9702 1062.0
32.2542 1100.0
32.5383 1314.0
32.8224 1143.0
33.1065 1130.0
33.3906 774.0
33.6747 663.0
33.9588 647.0
34.2429 565.0
34.527 623.0
34.8111 557.0
35.0952 550.0
35.3793 609.0
35.6633 522.0
35.9474 505.0
36.2315 564.0
36.5156 586.0
36.7997 549.0
37.0838 461.0
37.3679 451.0
37.652 448.0
37.9361 423.0
38.2202 436.0
38.5043 414.0
38.7884 449.0
39.0724 414.0
39.3565 481.0
39.6406 498.0
39.9247 434.0
40.2088 436.0
40.4929 410.0
40.777 432.0
41.0611 456.0
41.3452 438.0
41.6293 476.0
41.9134 479.0
42.1975 438.0
42.4815 395.0
42.7656 384.0
43.0497 434.0
43.3338 494.0
43.6179 489.0
43.902 465.0
44.1861 399.0
44.4702 410.0
44.7543 412.0
45.0384 402.0
45.3225 419.0
45.6066 352.0
45.8906 364.0
46.1747 429.0
46.4588 385.0
46.7429 410.0
47.027 417.0
47.3111 419.0
47.5952 368.0
47.8793 393.0
48.1634 401.0
48.4475 368.0
48.7316 418.0
49.0156 430.0
49.2997 489.0
49.5838 512.0
49.8679 441.0
50.152 434.0
50.4361 414.0
50.7202 457.0
51.0043 455.0
51.2884 454.0
51.5725 404.0
51.8566 380.0
52.1407 386.0
52.4247 379.0
52.7088 391.0
52.9929 394.0
53.277 419.0
53.5611 385.0
53.8452 375.0
54.1293 364.0
54.4134 367.0
54.6975 362.0
54.9816 386.0
55.2657 380.0
55.5498 369.0
55.8338 464.0
56.1179 406.0
56.402 403.0
56.6861 422.0
56.9702 376.0
57.2543 382.0
57.5384 354.0
57.8225 319.0
58.1066 325.0
58.3907 295.0
58.6748 326.0
58.9589 347.0
59.2429 336.0
59.527 386.0
59.8111 376.0
60.0952 341.0
60.3793 346.0
60.6634 322.0
60.9475 346.0
61.2316 352.0
61.5157 365.0
61.7998 328.0
62.0839 290.0
62.368 321.0
62.652 323.0
62.9361 300.0
63.2202 330.0
63.5043 324.0
63.7884 291.0
64.0725 310.0
64.3566 339.0
64.6407 318.0
64.9248 303.0
65.2089 320.0
65.493 287.0
65.7771 319.0
66.0611 323.0
66.3452 305.0
66.6293 325.0
66.9134 353.0
67.1975 335.0
67.4816 339.0
67.7657 302.0
68.0498 297.0
68.3339 330.0
68.618 303.0
68.9021 284.0
69.1862 288.0
69.4702 318.0
69.7543 294.0
70.0384 287.0
70.3225 304.0
70.6066 285.0
70.8907 263.0
71.1748 304.0
71.4589 274.0
71.743 257.0
72.0271 282.0
72.3112 259.0
72.5952 282.0
72.8793 271.0
73.1634 271.0
73.4475 266.0
73.7316 280.0
74.0157 279.0
74.2998 256.0
74.5839 246.0
74.868 270.0
75.1521 303.0
75.4362 264.0
75.7203 282.0
76.0043 235.0
76.2884 279.0
76.5725 256.0
76.8566 253.0
77.1407 232.0
77.4248 274.0
77.7089 228.0
77.993 231.0
78.2771 262.0
78.5612 236.0
78.8453 229.0
79.1294 229.0
79.4134 243.0
79.6975 203.0
79.9816 225.0
80.2657 211.0
80.5498 217.0
80.8339 198.0
81.118 223.0
81.4021 205.0
81.6862 190.0
81.9703 193.0
82.2544 183.0
82.5385 212.0
82.8225 209.0
83.1066 223.0
83.3907 183.0
83.6748 185.0
83.9589 169.0
84.243 204.0
84.5271 182.0
84.8112 219.0
85.0953 175.0
85.3794 177.0
85.6635 180.0
85.9476 188.0
86.2316 166.0
86.5157 149.0
86.7998 172.0
87.0839 164.0
87.368 167.0
87.6521 185.0
87.9362 166.0
88.2203 153.0
88.5044 165.0
88.7885 150.0
89.0726 135.0
89.3567 130.0
89.6407 178.0
89.9248 155.0
89.9415 130.0

File: 20221013_SAPO-18_221010_1_calc550C.xy
4.98146 1563.0
5.26555 1413.0
5.54964 1325.0
5.83373 1251.0
6.11782 1198.0
6.40191 1178.0
6.68601 1085.0
6.9701 1027.0
7.25419 1038.0
7.53828 1002.0
7.82237 973.0
8.10646 990.0
8.39055 900.0
8.67465 948.0
8.95874 932.0
9.24283 1302.0
9.52692 7675.0
9.81101 1754.0
10.0951 1015.0
10.3792 1111.0
10.6633 1885.0
10.9474 979.0
11.2315 866.0
11.5156 777.0
11.7997 769.0
12.0837 719.0
12.3678 717.0
12.6519 850.0
12.936 2039.0
13.2201 792.0
13.5042 1070.0
13.7883 787.0
14.0724 783.0
14.3565 639.0
14.6406 668.0
14.9247 666.0
15.2088 679.0
15.4928 680.0
15.7769 807.0
16.061 1473.0
16.3451 1104.0
16.6292 903.0
16.9133 1837.0
17.1974 1914.0
17.4815 1411.0
17.7656 1008.0
18.0497 798.0
18.3338 770.0
18.6179 805.0
18.9019 922.0
19.186 1175.0
19.4701 944.0
19.7542 1262.0
20.0383 1204.0
20.3224 1309.0
20.6065 1887.0
20.8906 1398.0
21.1747 1382.0
21.4588 2181.0
21.7429 1254.0
22.0269 1041.0
22.311 1079.0
22.5951 1315.0
22.8792 1093.0
23.1633 1310.0
23.4474 1282.0
23.7315 1554.0
24.0156 2855.0
24.2997 1958.0
24.5838 1330.0
24.8679 1288.0
25.152 1312.0
25.436 1505.0
25.7201 1476.0
26.0042 2101.0
26.2883 1881.0
26.5724 1939.0
26.8565 1367.0
27.1406 1326.0
27.4247 1369.0
27.7088 1434.0
27.9929 1905.0
28.277 1876.0
28.5611 1372.0
28.8451 1326.0
29.1292 1305.0
29.4133 1399.0
29.6974 1594.0
29.9815 1699.0
30.2656 1776.0
30.5497 1827.0
30.8338 2048.0
31.1179 2731.0
31.402 2396.0
31.6861 1615.0
31.9702 1451.0
32.2542 1534.0
32.5383 1619.0
32.8224 1496.0
33.1065 1432.0
33.3906 1122.0
33.6747 1032.0
33.9588 885.0
34.2429 899.0
34.527 899.0
34.8111 825.0
35.0952 869.0
35.3793 788.0
35.6633 747.0
35.9474 747.0
36.2315 740.0
36.5156 803.0
36.7997 703.0
37.0838 665.0
37.3679 669.0
37.652 609.0
37.9361 602.0
38.2202 615.0
38.5043 601.0
38.7884 651.0
39.0724 625.0
39.3565 673.0
39.6406 639.0
39.9247 635.0
40.2088 627.0
40.4929 595.0
40.777 560.0
41.0611 637.0
41.3452 653.0
41.6293 625.0
41.9134 601.0
42.1975 649.0
42.4815 541.0
42.7656 616.0
43.0497 633.0
43.3338 665.0
43.6179 666.0
43.902 606.0
44.1861 602.0
44.4702 595.0
44.7543 517.0
45.0384 632.0
45.3225 602.0
45.6066 569.0
45.8906 570.0
46.1747 575.0
46.4588 541.0
46.7429 506.0
47.027 525.0
47.3111 549.0
47.5952 555.0
47.8793 537.0
48.1634 536.0
48.4475 524.0
48.7316 521.0
49.0156 623.0
49.2997 643.0
49.5838 657.0
49.8679 648.0
50.152 599.0
50.4361 581.0
50.7202 628.0
51.0043 606.0
51.2884 565.0
51.5725 589.0
51.8566 576.0
52.1407 549.0
52.4247 517.0
52.7088 552.0
52.9929 512.0
53.277 538.0
53.5611 535.0
53.8452 523.0
54.1293 496.0
54.4134 490.0
54.6975 508.0
54.9816 528.0
55.2657 578.0
55.5498 576.0
55.8338 585.0
56.1179 599.0
56.402 526.0
56.6861 555.0
56.9702 521.0
57.2543 523.0
57.5384 477.0
57.8225 464.0
58.1066 490.0
58.3907 490.0
58.6748 454.0
58.9589 475.0
59.2429 429.0
59.527 532.0
59.8111 502.0
60.0952 466.0
60.3793 425.0
60.6634 507.0
60.9475 486.0
61.2316 462.0
61.5157 490.0
61.7998 489.0
62.0839 445.0
62.368 450.0
62.652 482.0
62.9361 460.0
63.2202 439.0
63.5043 441.0
63.7884 464.0
64.0725 411.0
64.3566 488.0
64.6407 462.0
64.9248 448.0
65.2089 402.0
65.493 460.0
65.7771 448.0
66.0611 435.0
66.3452 423.0
66.6293 465.0
66.9134 470.0
67.1975 485.0
67.4816 481.0
67.7657 402.0
68.0498 465.0
68.3339 439.0
68.618 439.0
68.9021 427.0
69.1862 411.0
69.4702 433.0
69.7543 420.0
70.0384 391.0
70.3225 439.0
70.6066 456.0
70.8907 411.0
71.1748 435.0
71.4589 397.0
71.743 396.0
72.0271 423.0
72.3112 444.0
72.5952 383.0
72.8793 398.0
73.1634 392.0
73.4475 400.0
73.7316 358.0
74.0157 367.0
74.2998 362.0
74.5839 356.0
74.868 378.0
75.1521 350.0
75.4362 375.0
75.7203 385.0
76.0043 407.0
76.2884 376.0
76.5725 342.0
76.8566 330.0
77.1407 344.0
77.4248 348.0
77.7089 339.0
77.993 358.0
78.2771 326.0
78.5612 315.0
78.8453 323.0
79.1294 313.0
79.4134 297.0
79.6975 317.0
79.9816 295.0
80.2657 290.0
80.5498 305.0
80.8339 308.0
81.118 263.0
81.4021 311.0
81.6862 298.0
81.9703 301.0
82.2544 279.0
82.5385 278.0
82.8225 275.0
83.1066 261.0
83.3907 261.0
83.6748 252.0
83.9589 229.0
84.243 273.0
84.5271 242.0
84.8112 239.0
85.0953 292.0
85.3794 239.0
85.6635 263.0
85.9476 250.0
86.2316 240.0
86.5157 241.0
86.7998 224.0
87.0839 230.0
87.368 237.0
87.6521 207.0
87.9362 204.0
88.2203 230.0
88.5044 273.0
88.7885 217.0
89.0726 213.0
89.3567 235.0
89.6407 204.0
89.9248 211.0
89.9415 235.0