Folder: bachelor_thesis/code/XRD_Analysis/External Sources/Fabian

Note: README.md
# bachelor_thesis
Hydrogensiation of CO2 to higher alcohols

File: 15022024_MCM-41.xy
4.98146 5780.0
5.26555 3710.0
5.54964 2733.0
5.83373 2526.0
6.11782 2343.0
6.40191 2622.0
6.68601 2162.0
6.9701 1961.0
7.25419 1779.0
7.53828 1659.0
7.82237 1539.0
8.10646 1445.0
8.39055 1367.0
8.67465 1254.0
8.95874 1237.0
9.24283 1180.0
9.52692 1119.0
9.81101 1103.0
10.0951 1042.0
10.3792 1031.0
10.6633 1031.0
10.9474 966.0
11.2315 920.0
11.5156 940.0
11.7997 848.0
12.0837 812.0
12.3678 842.0
12.6519 815.0
12.936 770.0
13.2201 826.0
13.5042 824.0
13.7883 819.0
14.0724 802.0
14.3565 854.0
14.6406 859.0
14.9247 826.0
15.2088 836.0
15.4928 888.0
15.7769 863.0
16.061 929.0
16.3451 923.0
16.6292 899.0
16.9133 993.0
17.1974 1020.0
17.4815 951.0
17.7656 1058.0
18.0497 1063.0
18.3338 1115.0
18.6179 1099.0
18.9019 1174.0
19.186 1271.0
19.4701 1164.0
19.7542 1331.0
20.0383 1390.0
20.3224 1353.0
20.6065 1424.0
20.8906 1489.0
21.1747 1474.0
21.4588 1445.0
21.7429 1510.0
22.0269 1615.0
22.311 1611.0
22.5951 1499.0
22.8792 1581.0
23.1633 1477.0
23.4474 1542.0
23.7315 1519.0
24.0156 1494.0
24.2997 1453.0
24.5838 1379.0
24.8679 1407.0
25.152 1340.0
25.436 1350.0
25.7201 1312.0
26.0042 1297.0
26.2883 1163.0
26.5724 1167.0
26.8565 1112.0
27.1406 1091.0
27.4247 1080.0
27.7088 1005.0
27.9929 948.0
28.277 945.0
28.5611 870.0
28.8451 909.0
29.1292 819.0
29.4133 819.0
29.6974 768.0
29.9815 808.0
30.2656 785.0
30.5497 739.0
30.8338 667.0
31.1179 662.0
31.402 697.0
31.6861 632.0
31.9702 654.0
32.2542 617.0
32.5383 597.0
32.8224 584.0
33.1065 585.0
33.3906 528.0
33.6747 569.0
33.9588 478.0
34.2429 533.0
34.527 478.0
34.8111 474.0
35.0952 480.0
35.3793 425.0
35.6633 436.0
35.9474 413.0
36.2315 412.0
36.5156 423.0
36.7997 387.0
37.0838 378.0
37.3679 396.0
37.652 396.0
37.9361 350.0
38.2202 367.0
38.5043 367.0
38.7884 364.0
39.0724 352.0
39.3565 328.0
39.6406 340.0
39.9247 358.0
40.2088 346.0
40.4929 342.0
40.777 292.0
41.0611 339.0
41.3452 353.0
41.6293 347.0
41.9134 317.0
42.1975 382.0
42.4815 375.0
42.7656 342.0
43.0497 313.0
43.3338 337.0
43.6179 333.0
43.902 330.0
44.1861 388.0
44.4702 329.0
44.7543 336.0
45.0384 338.0
45.3225 337.0
45.6066 315.0
45.8906 368.0
46.1747 319.0
46.4588 317.0
46.7429 338.0
47.027 298.0
47.3111 334.0
47.5952 336.0
47.8793 319.0
48.1634 322.0
48.4475 324.0
48.7316 303.0
49.0156 331.0
49.2997 293.0
49.5838 305.0
49.8679 316.0
50.152 292.0
50.4361 309.0
50.7202 284.0
51.0043 324.0
51.2884 290.0
51.5725 292.0
51.8566 321.0
52.1407 315.0
52.4247 299.0
52.7088 264.0
52.9929 326.0
53.277 315.0
53.5611 269.0
53.8452 270.0
54.1293 284.0
54.4134 287.0
54.6975 304.0
54.9816 282.0
55.2657 322.0
55.5498 266.0
55.8338 266.0
56.1179 271.0
56.402 293.0
56.6861 314.0
56.9702 271.0
57.2543 258.0
57.5384 286.0
57.8225 306.0
58.1066 261.0
58.3907 248.0
58.6748 250.0
58.9589 277.0
59.2429 290.0
59.527 288.0
59.8111 282.0
60.0952 288.0
60.3793 282.0
60.6634 277.0
60.9475 272.0
61.2316 287.0
61.5157 310.0
61.7998 273.0
62.0839 326.0
62.368 269.0
62.652 291.0
62.9361 290.0
63.2202 300.0
63.5043 269.0
63.7884 254.0
64.0725 285.0
64.3566 303.0
64.6407 317.0
64.9248 247.0
65.2089 298.0
65.493 286.0
65.7771 284.0
66.0611 282.0
66.3452 314.0
66.6293 291.0
66.9134 292.0
67.1975 284.0
67.4816 256.0
67.7657 286.0
68.0498 305.0
68.3339 269.0
68.618 292.0
68.9021 271.0
69.1862 271.0
69.4702 269.0
69.7543 270.0
70.0384 284.0
70.3225 293.0
70.6066 278.0
70.8907 320.0
71.1748 259.0
71.4589 255.0
71.743 274.0
72.0271 285.0
72.3112 282.0
72.5952 250.0
72.8793 289.0
73.1634 246.0
73.4475 266.0
73.7316 273.0
74.0157 284.0
74.2998 274.0
74.5839 288.0
74.868 279.0
75.1521 233.0
75.4362 229.0
75.7203 240.0
76.0043 253.0
76.2884 264.0
76.5725 255.0
76.8566 225.0
77.1407 237.0
77.4248 232.0
77.7089 221.0
77.993 221.0
78.2771 210.0
78.5612 276.0
78.8453 225.0
79.1294 226.0
79.4134 195.0
79.6975 208.0
79.9816 236.0
80.2657 216.0
80.5498 228.0
80.8339 220.0
81.118 205.0
81.4021 184.0
81.6862 203.0
81.9703 191.0
82.2544 181.0
82.5385 193.0
82.8225 158.0
83.1066 173.0
83.3907 178.0
83.6748 178.0
83.9589 161.0
84.243 161.0
84.5271 159.0
84.8112 176.0
85.0953 154.0
85.3794 147.0
85.6635 164.0
85.9476 165.0
86.2316 160.0
86.5157 153.0
86.7998 154.0
87.0839 151.0
87.368 127.0
87.6521 149.0
87.9362 131.0
88.2203 138.0
88.5044 146.0
88.7885 142.0
89.0726 118.0
89.3567 147.0
89.6407 112.0
89.9248 133.0
89.9415 125.0

File: 15022024_ZnZrOx_Syn2.xy
4.98146 996.0
5.26555 934.0
5.54964 939.0
5.83373 859.0
6.11782 850.0
6.40191 798.0
6.68601 713.0
6.9701 614.0
7.25419 668.0
7.53828 595.0
7.82237 594.0
8.10646 555.0
8.39055 548.0
8.67465 521.0
8.95874 489.0
9.24283 470.0
9.52692 479.0
9.81101 423.0
10.0951 465.0
10.3792 453.0
10.6633 397.0
10.9474 389.0
11.2315 378.0
11.5156 367.0
11.7997 351.0
12.0837 361.0
12.3678 339.0
12.6519 298.0
12.936 300.0
13.2201 301.0
13.5042 303.0
13.7883 279.0
14.0724 279.0
14.3565 272.0
14.6406 263.0
14.9247 294.0
15.2088 256.0
15.4928 256.0
15.7769 238.0
16.061 260.0
16.3451 209.0
16.6292 231.0
16.9133 193.0
17.1974 194.0
17.4815 204.0
17.7656 231.0
18.0497 192.0
18.3338 201.0
18.6179 212.0
18.9019 217.0
19.186 200.0
19.4701 188.0
19.7542 203.0
20.0383 210.0
20.3224 208.0
20.6065 195.0
20.8906 223.0
21.1747 217.0
21.4588 212.0
21.7429 196.0
22.0269 215.0
22.311 197.0
22.5951 238.0
22.8792 195.0
23.1633 212.0
23.4474 208.0
23.7315 242.0
24.0156 230.0
24.2997 224.0
24.5838 248.0
24.8679 237.0
25.152 263.0
25.436 294.0
25.7201 280.0
26.0042 279.0
26.2883 332.0
26.5724 292.0
26.8565 366.0
27.1406 386.0
27.4247 326.0
27.7088 417.0
27.9929 440.0
28.277 419.0
28.5611 466.0
28.8451 477.0
29.1292 575.0
29.4133 571.0
29.6974 654.0
29.9815 798.0
30.2656 1174.0
30.5497 2525.0
30.8338 1779.0
31.1179 963.0
31.402 762.0
31.6861 719.0
31.9702 725.0
32.2542 672.0
32.5383 682.0
32.8224 646.0
33.1065 668.0
33.3906 660.0
33.6747 604.0
33.9588 594.0
34.2429 520.0
34.527 520.0
34.8111 485.0
35.0952 559.0
35.3793 808.0
35.6633 706.0
35.9474 431.0
36.2315 335.0
36.5156 271.0
36.7997 254.0
37.0838 208.0
37.3679 228.0
37.652 215.0
37.9361 178.0
38.2202 167.0
38.5043 186.0
38.7884 191.0
39.0724 195.0
39.3565 184.0
39.6406 172.0
39.9247 177.0
40.2088 205.0
40.4929 174.0
40.777 174.0
41.0611 182.0
41.3452 215.0
41.6293 198.0
41.9134 251.0
42.1975 219.0
42.4815 221.0
42.7656 207.0
43.0497 215.0
43.3338 220.0
43.6179 254.0
43.902 273.0
44.1861 244.0
44.4702 239.0
44.7543 252.0
45.0384 255.0
45.3225 268.0
45.6066 268.0
45.8906 261.0
46.1747 274.0
46.4588 302.0
46.7429 269.0
47.027 295.0
47.3111 335.0
47.5952 285.0
47.8793 304.0
48.1634 322.0
48.4475 348.0
48.7316 349.0
49.0156 382.0
49.2997 392.0
49.5838 438.0
49.8679 494.0
50.152 501.0
50.4361 659.0
50.7202 1036.0
51.0043 1550.0
51.2884 1037.0
51.5725 567.0
51.8566 485.0
52.1407 426.0
52.4247 386.0
52.7088 422.0
52.9929 392.0
53.277 386.0
53.5611 394.0
53.8452 384.0
54.1293 363.0
54.4134 373.0
54.6975 403.0
54.9816 387.0
55.2657 352.0
55.5498 369.0
55.8338 377.0
56.1179 381.0
56.402 363.0
56.6861 367.0
56.9702 416.0
57.2543 369.0
57.5384 363.0
57.8225 342.0
58.1066 410.0
58.3907 353.0
58.6748 403.0
58.9589 407.0
59.2429 433.0
59.527 420.0
59.8111 525.0
60.0952 652.0
60.3793 946.0
60.6634 1201.0
60.9475 740.0
61.2316 498.0
61.5157 388.0
61.7998 358.0
62.0839 360.0
62.368 314.0
62.652 337.0
62.9361 356.0
63.2202 373.0
63.5043 439.0
63.7884 384.0
64.0725 282.0
64.3566 260.0
64.6407 295.0
64.9248 277.0
65.2089 294.0
65.493 247.0
65.7771 250.0
66.0611 219.0
66.3452 239.0
66.6293 240.0
66.9134 224.0
67.1975 194.0
67.4816 253.0
67.7657 247.0
68.0498 196.0
68.3339 248.0
68.618 240.0
68.9021 192.0
69.1862 190.0
69.4702 209.0
69.7543 192.0
70.0384 191.0
70.3225 196.0
70.6066 211.0
70.8907 169.0
71.1748 169.0
71.4589 213.0
71.743 173.0
72.0271 201.0
72.3112 153.0
72.5952 176.0
72.8793 191.0
73.1634 158.0
73.4475 183.0
73.7316 173.0
74.0157 196.0
74.2998 224.0
74.5839 233.0
74.868 282.0
75.1521 271.0
75.4362 191.0
75.7203 175.0
76.0043 153.0
76.2884 146.0
76.5725 149.0
76.8566 153.0
77.1407 152.0
77.4248 191.0
77.7089 155.0
77.993 159.0
78.2771 191.0
78.5612 180.0
78.8453 172.0
79.1294 151.0
79.4134 166.0
79.6975 159.0
79.9816 152.0
80.2657 180.0
80.5498 185.0
80.8339 176.0
81.118 212.0
81.4021 222.0
81.6862 227.0
81.9703 242.0
82.2544 268.0
82.5385 291.0
82.8225 380.0
83.1066 410.0
83.3907 267.0
83.6748 267.0
83.9589 216.0
84.243 241.0
84.5271 240.0
84.8112 228.0
85.0953 268.0
85.3794 280.0
85.6635 323.0
85.9476 300.0
86.2316 248.0
86.5157 214.0
86.7998 197.0
87.0839 193.0
87.368 196.0
87.6521 179.0
87.9362 190.0
88.2203 176.0
88.5044 174.0
88.7885 186.0
89.0726 155.0
89.3567 216.0
89.6407 200.0
89.9248 195.0
89.9415 178.0

File: 20240223_RhCo3_MCM-41.xy
4.98146 4602.0
5.26555 3184.0
5.54964 2664.0
5.83373 2479.0
6.11782 2534.0
6.40191 2478.0
6.68601 2183.0
6.9701 2005.0
7.25419 1837.0
7.53828 1734.0
7.82237 1633.0
8.10646 1596.0
8.39055 1490.0
8.67465 1466.0
8.95874 1429.0
9.24283 1404.0
9.52692 1370.0
9.81101 1353.0
10.0951 1363.0
10.3792 1318.0
10.6633 1303.0
10.9474 1247.0
11.2315 1293.0
11.5156 1298.0
11.7997 1275.0
12.0837 1170.0
12.3678 1182.0
12.6519 1285.0
12.936 1223.0
13.2201 1285.0
13.5042 1248.0
13.7883 1326.0
14.0724 1271.0
14.3565 1301.0
14.6406 1291.0
14.9247 1283.0
15.2088 1375.0
15.4928 1373.0
15.7769 1387.0
16.061 1398.0
16.3451 1440.0
16.6292 1432.0
16.9133 1468.0
17.1974 1501.0
17.4815 1468.0
17.7656 1551.0
18.0497 1572.0
18.3338 1611.0
18.6179 1659.0
18.9019 1719.0
19.186 1732.0
19.4701 1877.0
19.7542 1789.0
20.0383 1836.0
20.3224 1895.0
20.6065 1969.0
20.8906 1988.0
21.1747 2026.0
21.4588 2040.0
21.7429 2054.0
22.0269 2099.0
22.311 2149.0
22.5951 2070.0
22.8792 2081.0
23.1633 1934.0
23.4474 2055.0
23.7315 2082.0
24.0156 2079.0
24.2997 2010.0
24.5838 1952.0
24.8679 1949.0
25.152 1954.0
25.436 1878.0
25.7201 1917.0
26.0042 1852.0
26.2883 1854.0
26.5724 1725.0
26.8565 1759.0
27.1406 1721.0
27.4247 1687.0
27.7088 1663.0
27.9929 1539.0
28.277 1566.0
28.5611 1544.0
28.8451 1456.0
29.1292 1527.0
29.4133 1495.0
29.6974 1469.0
29.9815 1435.0
30.2656 1385.0
30.5497 1479.0
30.8338 1368.0
31.1179 1319.0
31.402 1335.0
31.6861 1291.0
31.9702 1187.0
32.2542 1317.0
32.5383 1208.0
32.8224 1189.0
33.1065 1232.0
33.3906 1197.0
33.6747 1180.0
33.9588 1168.0
34.2429 1205.0
34.527 1181.0
34.8111 1132.0
35.0952 1168.0
35.3793 1170.0
35.6633 1162.0
35.9474 1093.0
36.2315 1066.0
36.5156 1120.0
36.7997 1097.0
37.0838 1107.0
37.3679 1086.0
37.652 1062.0
37.9361 1071.0
38.2202 1068.0
38.5043 1067.0
38.7884 932.0
39.0724 972.0
39.3565 998.0
39.6406 917.0
39.9247 939.0
40.2088 988.0
40.4929 976.0
40.777 990.0
41.0611 996.0
41.3452 947.0
41.6293 993.0
41.9134 982.0
42.1975 1007.0
42.4815 957.0
42.7656 953.0
43.0497 993.0
43.3338 900.0
43.6179 938.0
43.902 912.0
44.1861 1018.0
44.4702 929.0
44.7543 869.0
45.0384 919.0
45.3225 928.0
45.6066 892.0
45.8906 982.0
46.1747 880.0
46.4588 903.0
46.7429 914.0
47.027 932.0
47.3111 911.0
47.5952 878.0
47.8793 866.0
48.1634 925.0
48.4475 914.0
48.7316 931.0
49.0156 873.0
49.2997 851.0
49.5838 823.0
49.8679 842.0
50.152 909.0
50.4361 821.0
50.7202 911.0
51.0043 826.0
51.2884 815.0
51.5725 855.0
51.8566 834.0
52.1407 846.0
52.4247 845.0
52.7088 870.0
52.9929 866.0
53.277 845.0
53.5611 814.0
53.8452 802.0
54.1293 863.0
54.4134 835.0
54.6975 865.0
54.9816 805.0
55.2657 818.0
55.5498 816.0
55.8338 831.0
56.1179 763.0
56.402 779.0
56.6861 849.0
56.9702 823.0
57.2543 786.0
57.5384 794.0
57.8225 742.0
58.1066 838.0
58.3907 828.0
58.6748 787.0
58.9589 846.0
59.2429 857.0
59.527 851.0
59.8111 847.0
60.0952 789.0
60.3793 834.0
60.6634 825.0
60.9475 804.0
61.2316 798.0
61.5157 784.0
61.7998 815.0
62.0839 787.0
62.368 822.0
62.652 807.0
62.9361 775.0
63.2202 755.0
63.5043 810.0
63.7884 783.0
64.0725 771.0
64.3566 799.0
64.6407 786.0
64.9248 775.0
65.2089 835.0
65.493 785.0
65.7771 800.0
66.0611 762.0
66.3452 735.0
66.6293 808.0
66.9134 773.0
67.1975 804.0
67.4816 805.0
67.7657 782.0
68.0498 774.0
68.3339 727.0
68.618 725.0
68.9021 774.0
69.1862 771.0
69.4702 762.0
69.7543 757.0
70.0384 750.0
70.3225 705.0
70.6066 757.0
70.8907 784.0
71.1748 761.0
71.4589 713.0
71.743 742.0
72.0271 654.0
72.3112 684.0
72.5952 732.0
72.8793 723.0
73.1634 728.0
73.4475 729.0
73.7316 696.0
74.0157 684.0
74.2998 716.0
74.5839 740.0
74.868 741.0
75.1521 711.0
75.4362 750.0
75.7203 741.0
76.0043 751.0
76.2884 684.0
76.5725 717.0
76.8566 707.0
77.1407 684.0
77.4248 661.0
77.7089 656.0
77.993 683.0
78.2771 705.0
78.5612 686.0
78.8453 660.0
79.1294 688.0
79.4134 681.0
79.6975 660.0
79.9816 674.0
80.2657 673.0
80.5498 666.0
80.8339 620.0
81.118 602.0
81.4021 659.0
81.6862 648.0
81.9703 636.0
82.2544 697.0
82.5385 599.0
82.8225 637.0
83.1066 595.0
83.3907 653.0
83.6748 626.0
83.9589 629.0
84.243 623.0
84.5271 609.0
84.8112 605.0
85.0953 616.0
85.3794 611.0
85.6635 581.0
85.9476 595.0
86.2316 558.0
86.5157 614.0
86.7998 619.0
87.0839 572.0
87.368 547.0
87.6521 596.0
87.9362 585.0
88.2203 627.0
88.5044 581.0
88.7885 544.0
89.0726 600.0
89.3567 542.0
89.6407 566.0
89.9248 550.0
89.9415 606.0

File: 20240223_ZnZrOx.xy
4.98146 1126.0
5.26555 972.0
5.54964 904.0
5.83373 845.0
6.11782 819.0
6.40191 735.0
6.68601 784.0
6.9701 693.0
7.25419 692.0
7.53828 626.0
7.82237 629.0
8.10646 615.0
8.39055 528.0
8.67465 527.0
8.95874 537.0
9.24283 532.0
9.52692 471.0
9.81101 501.0
10.0951 457.0
10.3792 474.0
10.6633 441.0
10.9474 369.0
11.2315 353.0
11.5156 365.0
11.7997 367.0
12.0837 366.0
12.3678 365.0
12.6519 319.0
12.936 348.0
13.2201 300.0
13.5042 329.0
13.7883 344.0
14.0724 319.0
14.3565 323.0
14.6406 259.0
14.9247 287.0
15.2088 263.0
15.4928 252.0
15.7769 246.0
16.061 254.0
16.3451 242.0
16.6292 272.0
16.9133 244.0
17.1974 236.0
17.4815 238.0
17.7656 227.0
18.0497 231.0
18.3338 185.0
18.6179 204.0
18.9019 214.0
19.186 244.0
19.4701 211.0
19.7542 193.0
20.0383 196.0
20.3224 210.0
20.6065 206.0
20.8906 191.0
21.1747 207.0
21.4588 225.0
21.7429 183.0
22.0269 209.0
22.311 188.0
22.5951 212.0
22.8792 230.0
23.1633 270.0
23.4474 246.0
23.7315 215.0
24.0156 259.0
24.2997 250.0
24.5838 251.0
24.8679 239.0
25.152 235.0
25.436 298.0
25.7201 271.0
26.0042 307.0
26.2883 317.0
26.5724 306.0
26.8565 284.0
27.1406 322.0
27.4247 318.0
27.7088 380.0
27.9929 373.0
28.277 436.0
28.5611 447.0
28.8451 503.0
29.1292 585.0
29.4133 734.0
29.6974 917.0
29.9815 1297.0
30.2656 2577.0
30.5497 7899.0
30.8338 3993.0
31.1179 1372.0
31.402 912.0
31.6861 713.0
31.9702 676.0
32.2542 600.0
32.5383 588.0
32.8224 527.0
33.1065 543.0
33.3906 550.0
33.6747 552.0
33.9588 486.0
34.2429 548.0
34.527 522.0
34.8111 568.0
35.0952 728.0
35.3793 1949.0
35.6633 1177.0
35.9474 457.0
36.2315 349.0
36.5156 285.0
36.7997 223.0
37.0838 232.0
37.3679 236.0
37.652 175.0
37.9361 189.0
38.2202 198.0
38.5043 161.0
38.7884 173.0
39.0724 169.0
39.3565 165.0
39.6406 176.0
39.9247 169.0
40.2088 178.0
40.4929 185.0
40.777 177.0
41.0611 181.0
41.3452 189.0
41.6293 206.0
41.9134 221.0
42.1975 201.0
42.4815 220.0
42.7656 184.0
43.0497 231.0
43.3338 239.0
43.6179 230.0
43.902 243.0
44.1861 266.0
44.4702 232.0
44.7543 213.0
45.0384 232.0
45.3225 239.0
45.6066 228.0
45.8906 293.0
46.1747 232.0
46.4588 256.0
46.7429 294.0
47.027 250.0
47.3111 263.0
47.5952 302.0
47.8793 297.0
48.1634 304.0
48.4475 318.0
48.7316 372.0
49.0156 427.0
49.2997 461.0
49.5838 537.0
49.8679 573.0
50.152 816.0
50.4361 1110.0
50.7202 2278.0
51.0043 3741.0
51.2884 1931.0
51.5725 865.0
51.8566 571.0
52.1407 423.0
52.4247 384.0
52.7088 353.0
52.9929 350.0
53.277 308.0
53.5611 323.0
53.8452 340.0
54.1293 301.0
54.4134 314.0
54.6975 301.0
54.9816 306.0
55.2657 294.0
55.5498 310.0
55.8338 314.0
56.1179 310.0
56.402 307.0
56.6861 326.0
56.9702 345.0
57.2543 354.0
57.5384 352.0
57.8225 376.0
58.1066 364.0
58.3907 372.0
58.6748 385.0
58.9589 427.0
59.2429 473.0
59.527 557.0
59.8111 745.0
60.0952 1039.0
60.3793 2068.0
60.6634 2497.0
60.9475 1318.0
61.2316 658.0
61.5157 487.0
61.7998 397.0
62.0839 349.0
62.368 350.0
62.652 357.0
62.9361 367.0
63.2202 472.0
63.5043 653.0
63.7884 504.0
64.0725 399.0
64.3566 286.0
64.6407 266.0
64.9248 222.0
65.2089 242.0
65.493 224.0
65.7771 238.0
66.0611 219.0
66.3452 205.0
66.6293 229.0
66.9134 215.0
67.1975 204.0
67.4816 178.0
67.7657 190.0
68.0498 207.0
68.3339 183.0
68.618 190.0
68.9021 179.0
69.1862 186.0
69.4702 163.0
69.7543 155.0
70.0384 167.0
70.3225 183.0
70.6066 160.0
70.8907 154.0
71.1748 159.0
71.4589 151.0
71.743 157.0
72.0271 146.0
72.3112 150.0
72.5952 208.0
72.8793 162.0
73.1634 178.0
73.4475 207.0
73.7316 196.0
74.0157 191.0
74.2998 236.0
74.5839 373.0
74.868 475.0
75.1521 407.0
75.4362 214.0
75.7203 178.0
76.0043 165.0
76.2884 154.0
76.5725 150.0
76.8566 165.0
77.1407 161.0
77.4248 147.0
77.7089 162.0
77.993 150.0
78.2771 168.0
78.5612 143.0
78.8453 193.0
79.1294 153.0
79.4134 153.0
79.6975 181.0
79.9816 165.0
80.2657 199.0
80.5498 186.0
80.8339 203.0
81.118 210.0
81.4021 188.0
81.6862 274.0
81.9703 313.0
82.2544 391.0
82.5385 536.0
82.8225 705.0
83.1066 664.0
83.3907 513.0
83.6748 392.0
83.9589 295.0
84.243 240.0
84.5271 309.0
84.8112 311.0
85.0953 391.0
85.3794 481.0
85.6635 503.0
85.9476 425.0
86.2316 293.0
86.5157 213.0
86.7998 188.0
87.0839 205.0
87.368 173.0
87.6521 175.0
87.9362 193.0
88.2203 208.0
88.5044 188.0
88.7885 181.0
89.0726 167.0
89.3567 161.0
89.6407 165.0
89.9248 175.0
89.9415 185.0

File: 20240328_ZSM-5.xy
4.98146 1042.0
5.26555 977.0
5.54964 891.0
5.83373 855.0
6.11782 750.0
6.40191 823.0
6.68601 773.0
6.9701 740.0
7.25419 726.0
7.53828 704.0
7.82237 2216.0
8.10646 9412.0
8.39055 918.0
8.67465 1354.0
8.95874 8102.0
9.24283 2469.0
9.52692 734.0
9.81101 558.0
10.0951 584.0
10.3792 504.0
10.6633 474.0
10.9474 472.0
11.2315 450.0
11.5156 464.0
11.7997 408.0
12.0837 519.0
12.3678 400.0
12.6519 463.0
12.936 394.0
13.2201 818.0
13.5042 492.0
13.7883 507.0
14.0724 1861.0
14.3565 459.0
14.6406 703.0
14.9247 2735.0
15.2088 575.0
15.4928 947.0
15.7769 1025.0
16.061 1874.0
16.3451 460.0
16.6292 845.0
16.9133 418.0
17.1974 441.0
17.4815 531.0
17.7656 1301.0
18.0497 650.0
18.3338 495.0
18.6179 402.0
18.9019 500.0
19.186 618.0
19.4701 665.0
19.7542 550.0
20.0383 641.0
20.3224 828.0
20.6065 886.0
20.8906 1640.0
21.1747 737.0
21.4588 543.0
21.7429 658.0
22.0269 729.0
22.311 1320.0
22.5951 846.0
22.8792 1305.0
23.1633 14533.0
23.4474 7314.0
23.7315 3361.0
24.0156 7915.0
24.2997 2070.0
24.5838 2445.0
24.8679 1144.0
25.152 599.0
25.436 674.0
25.7201 1125.0
26.0042 1669.0
26.2883 1074.0
26.5724 1121.0
26.8565 1156.0
27.1406 1583.0
27.4247 933.0
27.7088 713.0
27.9929 537.0
28.277 659.0
28.5611 719.0
28.8451 523.0
29.1292 617.0
29.4133 1494.0
29.6974 682.0
29.9815 3229.0
30.2656 1824.0
30.5497 789.0
30.8338 532.0
31.1179 497.0
31.402 824.0
31.6861 537.0
31.9702 481.0
32.2542 588.0
32.5383 481.0
32.8224 916.0
33.1065 553.0
33.3906 487.0
33.6747 512.0
33.9588 525.0
34.2429 525.0
34.527 876.0
34.8111 637.0
35.0952 637.0
35.3793 488.0
35.6633 588.0
35.9474 549.0
36.2315 1123.0
36.5156 620.0
36.7997 542.0
37.0838 473.0
37.3679 703.0
37.652 836.0
37.9361 505.0
38.2202 338.0
38.5043 310.0
38.7884 447.0
39.0724 361.0
39.3565 357.0
39.6406 354.0
39.9247 318.0
40.2088 254.0
40.4929 383.0
40.777 356.0
41.0611 448.0
41.3452 388.0
41.6293 463.0
41.9134 318.0
42.1975 313.0
42.4815 360.0
42.7656 346.0
43.0497 403.0
43.3338 480.0
43.6179 528.0
43.902 364.0
44.1861 375.0
44.4702 331.0
44.7543 441.0
45.0384 1096.0
45.3225 1231.0
45.6066 1486.0
45.8906 726.0
46.1747 445.0
46.4588 522.0
46.7429 646.0
47.027 299.0
47.3111 564.0
47.5952 664.0
47.8793 494.0
48.1634 301.0
48.4475 457.0
48.7316 567.0
49.0156 563.0
49.2997 301.0
49.5838 419.0
49.8679 380.0
50.152 362.0
50.4361 335.0
50.7202 304.0
51.0043 350.0
51.2884 362.0
51.5725 373.0
51.8566 540.0
52.1407 485.0
52.4247 503.0
52.7088 282.0
52.9929 342.0
53.277 362.0
53.5611 348.0
53.8452 381.0
54.1293 307.0
54.4134 289.0
54.6975 358.0
54.9816 744.0
55.2657 872.0
55.5498 497.0
55.8338 604.0
56.1179 458.0
56.402 336.0
56.6861 403.0
56.9702 345.0
57.2543 450.0
57.5384 409.0
57.8225 301.0
58.1066 284.0
58.3907 308.0
58.6748 300.0
58.9589 375.0
59.2429 472.0
59.527 370.0
59.8111 280.0
60.0952 309.0
60.3793 358.0
60.6634 320.0
60.9475 361.0
61.2316 365.0
61.5157 324.0
61.7998 329.0
62.0839 467.0
62.368 482.0
62.652 629.0
62.9361 425.0
63.2202 422.0
63.5043 616.0
63.7884 773.0
64.0725 504.0
64.3566 690.0
64.6407 646.0
64.9248 522.0
65.2089 462.0
65.493 672.0
65.7771 574.0
66.0611 536.0
66.3452 535.0
66.6293 381.0
66.9134 463.0
67.1975 680.0
67.4816 566.0
67.7657 495.0
68.0498 428.0
68.3339 349.0
68.618 328.0
68.9021 396.0
69.1862 371.0
69.4702 342.0
69.7543 310.0
70.0384 298.0
70.3225 413.0
70.6066 388.0
70.8907 320.0
71.1748 385.0
71.4589 350.0
71.743 290.0
72.0271 330.0
72.3112 308.0
72.5952 257.0
72.8793 271.0
73.1634 293.0
73.4475 300.0
73.7316 386.0
74.0157 353.0
74.2998 310.0
74.5839 328.0
74.868 386.0
75.1521 355.0
75.4362 348.0
75.7203 413.0
76.0043 371.0
76.2884 348.0
76.5725 372.0
76.8566 371.0
77.1407 433.0
77.4248 444.0
77.7089 384.0
77.993 324.0
78.2771 407.0
78.5612 533.0
78.8453 539.0
79.1294 621.0
79.4134 493.0
79.6975 404.0
79.9816 415.0
80.2657 387.0
80.5498 401.0
80.8339 354.0
81.118 370.0
81.4021 381.0
81.6862 344.0
81.9703 361.0
82.2544 308.0
82.5385 369.0
82.8225 346.0
83.1066 316.0
83.3907 318.0
83.6748 289.0
83.9589 242.0
84.243 272.0
84.5271 297.0
84.8112 329.0
85.0953 288.0
85.3794 285.0
85.6635 263.0
85.9476 313.0
86.2316 321.0
86.5157 255.0
86.7998 230.0
87.0839 201.0
87.368 223.0
87.6521 206.0
87.9362 268.0
88.2203 257.0
88.5044 254.0
88.7885 231.0
89.0726 213.0
89.3567 228.0
89.6407 221.0
89.9248 240.0
89.9415 223.0

File: 20240402_RUB-50_calc_lessmaterial.xy
4.98146 1351.0
5.26555 1278.0
5.54964 1145.0
5.83373 1116.0
6.11782 1058.0
6.40191 1091.0
6.68601 1033.0
6.9701 1187.0
7.25419 1790.0
7.53828 1712.0
7.82237 1200.0
8.10646 1246.0
8.39055 1533.0
8.67465 1479.0
8.95874 1531.0
9.24283 1396.0
9.52692 1385.0
9.81101 1387.0
10.0951 1234.0
10.3792 1039.0
10.6633 942.0
10.9474 770.0
11.2315 643.0
11.5156 622.0
11.7997 587.0
12.0837 570.0
12.3678 570.0
12.6519 598.0
12.936 692.0
13.2201 700.0
13.5042 591.0
13.7883 584.0
14.0724 661.0
14.3565 907.0
14.6406 1721.0
14.9247 1284.0
15.2088 1076.0
15.4928 870.0
15.7769 880.0
16.061 851.0
16.3451 800.0
16.6292 693.0
16.9133 621.0
17.1974 583.0
17.4815 590.0
17.7656 553.0
18.0497 556.0
18.3338 667.0
18.6179 712.0
18.9019 848.0
19.186 966.0
19.4701 1022.0
19.7542 1110.0
20.0383 1147.0
20.3224 1174.0
20.6065 1132.0
20.8906 1011.0
21.1747 963.0
21.4588 944.0
21.7429 1234.0
22.0269 1576.0
22.311 2028.0
22.5951 2284.0
22.8792 2558.0
23.1633 2254.0
23.4474 1865.0
23.7315 1594.0
24.0156 1576.0
24.2997 1339.0
24.5838 1053.0
24.8679 1098.0
25.152 1438.0
25.436 1928.0
25.7201 1600.0
26.0042 1888.0
26.2883 3351.0
26.5724 2594.0
26.8565 2041.0
27.1406 1902.0
27.4247 1799.0
27.7088 1569.0
27.9929 1393.0
28.277 1287.0
28.5611 1172.0
28.8451 1134.0
29.1292 1044.0
29.4133 928.0
29.6974 832.0
29.9815 798.0
30.2656 741.0
30.5497 679.0
30.8338 643.0
31.1179 629.0
31.402 595.0
31.6861 705.0
31.9702 762.0
32.2542 770.0
32.5383 669.0
32.8224 704.0
33.1065 756.0
33.3906 777.0
33.6747 814.0
33.9588 803.0
34.2429 722.0
34.527 692.0
34.8111 700.0
35.0952 719.0
35.3793 557.0
35.6633 527.0
35.9474 516.0
36.2315 485.0
36.5156 516.0
36.7997 534.0
37.0838 522.0
37.3679 542.0
37.652 550.0
37.9361 500.0
38.2202 622.0
38.5043 561.0
38.7884 502.0
39.0724 459.0
39.3565 449.0
39.6406 492.0
39.9247 458.0
40.2088 462.0
40.4929 434.0
40.777 472.0
41.0611 433.0
41.3452 460.0
41.6293 434.0
41.9134 422.0
42.1975 427.0
42.4815 410.0
42.7656 448.0
43.0497 450.0
43.3338 459.0
43.6179 461.0
43.902 465.0
44.1861 443.0
44.4702 465.0
44.7543 485.0
45.0384 492.0
45.3225 463.0
45.6066 479.0
45.8906 467.0
46.1747 459.0
46.4588 613.0
46.7429 602.0
47.027 512.0
47.3111 486.0
47.5952 429.0
47.8793 373.0
48.1634 409.0
48.4475 465.0
48.7316 529.0
49.0156 512.0
49.2997 524.0
49.5838 543.0
49.8679 424.0
50.152 451.0
50.4361 441.0
50.7202 439.0
51.0043 431.0
51.2884 443.0
51.5725 490.0
51.8566 467.0
52.1407 480.0
52.4247 472.0
52.7088 477.0
52.9929 460.0
53.277 442.0
53.5611 416.0
53.8452 404.0
54.1293 383.0
54.4134 392.0
54.6975 388.0
54.9816 363.0
55.2657 373.0
55.5498 346.0
55.8338 361.0
56.1179 364.0
56.402 353.0
56.6861 404.0
56.9702 411.0
57.2543 404.0
57.5384 419.0
57.8225 362.0
58.1066 406.0
58.3907 372.0
58.6748 422.0
58.9589 383.0
59.2429 392.0
59.527 368.0
59.8111 385.0
60.0952 388.0
60.3793 410.0
60.6634 384.0
60.9475 350.0
61.2316 376.0
61.5157 378.0
61.7998 439.0
62.0839 407.0
62.368 417.0
62.652 413.0
62.9361 360.0
63.2202 391.0
63.5043 391.0
63.7884 367.0
64.0725 407.0
64.3566 403.0
64.6407 400.0
64.9248 424.0
65.2089 418.0
65.493 498.0
65.7771 506.0
66.0611 548.0
66.3452 537.0
66.6293 475.0
66.9134 476.0
67.1975 414.0
67.4816 423.0
67.7657 383.0
68.0498 363.0
68.3339 354.0
68.618 364.0
68.9021 340.0
69.1862 360.0
69.4702 333.0
69.7543 353.0
70.0384 367.0
70.3225 357.0
70.6066 354.0
70.8907 381.0
71.1748 377.0
71.4589 326.0
71.743 362.0
72.0271 314.0
72.3112 335.0
72.5952 372.0
72.8793 364.0
73.1634 361.0
73.4475 358.0
73.7316 409.0
74.0157 362.0
74.2998 349.0
74.5839 337.0
74.868 349.0
75.1521 336.0
75.4362 365.0
75.7203 338.0
76.0043 310.0
76.2884 318.0
76.5725 332.0
76.8566 353.0
77.1407 330.0
77.4248 323.0
77.7089 369.0
77.993 339.0
78.2771 358.0
78.5612 314.0
78.8453 394.0
79.1294 378.0
79.4134 371.0
79.6975 339.0
79.9816 305.0
80.2657 335.0
80.5498 378.0
80.8339 305.0
81.118 325.0
81.4021 299.0
81.6862 298.0
81.9703 257.0
82.2544 277.0
82.5385 242.0
82.8225 280.0
83.1066 251.0
83.3907 238.0
83.6748 237.0
83.9589 243.0
84.243 240.0
84.5271 240.0
84.8112 223.0
85.0953 193.0
85.3794 223.0
85.6635 221.0
85.9476 248.0
86.2316 193.0
86.5157 215.0
86.7998 203.0
87.0839 228.0
87.368 209.0
87.6521 176.0
87.9362 207.0
88.2203 189.0
88.5044 192.0
88.7885 185.0
89.0726 198.0
89.3567 207.0
89.6407 203.0
89.9248 175.0
89.9415 211.0