Folder: bachelor_thesis/code/XRD_Analysis/External Sources/Fabian (part 3)

File: 20240409_RhCo3_MCm-41_not_used.xy
4.98146 17714.0
5.26555 12104.0
5.54964 9245.0
5.83373 8332.0
6.11782 7966.0
6.40191 7974.0
6.68601 7196.0
6.9701 6268.0
7.25419 5858.0
7.53828 5585.0
7.82237 5311.0
8.10646 5001.0
8.39055 4796.0
8.67465 4737.0
8.95874 4552.0
9.24283 4447.0
9.52692 4214.0
9.81101 4214.0
10.0951 4259.0
10.3792 4157.0
10.6633 4121.0
10.9474 4053.0
11.2315 3954.0
11.5156 3981.0
11.7997 4024.0
12.0837 4008.0
12.3678 4039.0
12.6519 3946.0
12.936 3999.0
13.2201 3913.0
13.5042 4054.0
13.7883 4030.0
14.0724 4151.0
14.3565 4153.0
14.6406 4299.0
14.9247 4298.0
15.2088 4405.0
15.4928 4391.0
15.7769 4584.0
16.061 4576.0
16.3451 4586.0
16.6292 4799.0
16.9133 4952.0
17.1974 5056.0
17.4815 5035.0
17.7656 5282.0
18.0497 5415.0
18.3338 5550.0
18.6179 5696.0
18.9019 5859.0
19.186 5902.0
19.4701 5973.0
19.7542 6240.0
20.0383 6332.0
20.3224 6608.0
20.6065 6518.0
20.8906 6772.0
21.1747 6935.0
21.4588 6856.0
21.7429 6956.0
22.0269 7088.0
22.311 7093.0
22.5951 7162.0
22.8792 7033.0
23.1633 7005.0
23.4474 7150.0
23.7315 6965.0
24.0156 6883.0
24.2997 6922.0
24.5838 6696.0
24.8679 6705.0
25.152 6513.0
25.436 6474.0
25.7201 6168.0
26.0042 6143.0
26.2883 6000.0
26.5724 5790.0
26.8565 5645.0
27.1406 5681.0
27.4247 5512.0
27.7088 5367.0
27.9929 5228.0
28.277 5142.0
28.5611 4976.0
28.8451 4961.0
29.1292 4847.0
29.4133 4617.0
29.6974 4744.0
29.9815 4504.0
30.2656 4472.0
30.5497 4382.0
30.8338 4357.0
31.1179 4233.0
31.402 4271.0
31.6861 4247.0
31.9702 4269.0
32.2542 4141.0
32.5383 3987.0
32.8224 3927.0
33.1065 3885.0
33.3906 3844.0
33.6747 3958.0
33.9588 3881.0
34.2429 3810.0
34.527 3820.0
34.8111 3805.0
35.0952 3631.0
35.3793 3708.0
35.6633 3778.0
35.9474 3739.0
36.2315 3795.0
36.5156 3676.0
36.7997 3566.0
37.0838 3571.0
37.3679 3373.0
37.652 3344.0
37.9361 3252.0
38.2202 3221.0
38.5043 3242.0
38.7884 3221.0
39.0724 3094.0
39.3565 3081.0
39.6406 3090.0
39.9247 3082.0
40.2088 3041.0
40.4929 2981.0
40.777 3019.0
41.0611 2964.0
41.3452 2990.0
41.6293 2985.0
41.9134 3013.0
42.1975 3033.0
42.4815 2895.0
42.7656 2938.0
43.0497 3010.0
43.3338 2912.0
43.6179 2976.0
43.902 2913.0
44.1861 2915.0
44.4702 2881.0
44.7543 2964.0
45.0384 2944.0
45.3225 3012.0
45.6066 2924.0
45.8906 2858.0
46.1747 2833.0
46.4588 2813.0
46.7429 2907.0
47.027 2796.0
47.3111 2902.0
47.5952 2827.0
47.8793 2773.0
48.1634 2604.0
48.4475 2748.0
48.7316 2801.0
49.0156 2692.0
49.2997 2741.0
49.5838 2724.0
49.8679 2630.0
50.152 2590.0
50.4361 2639.0
50.7202 2629.0
51.0043 2617.0
51.2884 2618.0
51.5725 2618.0
51.8566 2658.0
52.1407 2625.0
52.4247 2562.0
52.7088 2570.0
52.9929 2551.0
53.277 2509.0
53.5611 2598.0
53.8452 2517.0
54.1293 2517.0
54.4134 2598.0
54.6975 2588.0
54.9816 2512.0
55.2657 2547.0
55.5498 2546.0
55.8338 2546.0
56.1179 2505.0
56.402 2555.0
56.6861 2549.0
56.9702 2529.0
57.2543 2480.0
57.5384 2413.0
57.8225 2457.0
58.1066 2582.0
58.3907 2404.0
58.6748 2508.0
58.9589 2547.0
59.2429 2592.0
59.527 2465.0
59.8111 2394.0
60.0952 2447.0
60.3793 2521.0
60.6634 2427.0
60.9475 2473.0
61.2316 2442.0
61.5157 2435.0
61.7998 2617.0
62.0839 2378.0
62.368 2541.0
62.652 2561.0
62.9361 2468.0
63.2202 2557.0
63.5043 2516.0
63.7884 2400.0
64.0725 2427.0
64.3566 2399.0
64.6407 2413.0
64.9248 2336.0
65.2089 2365.0
65.493 2343.0
65.7771 2424.0
66.0611 2244.0
66.3452 2371.0
66.6293 2388.0
66.9134 2353.0
67.1975 2329.0
67.4816 2339.0
67.7657 2456.0
68.0498 2278.0
68.3339 2411.0
68.618 2437.0
68.9021 2322.0
69.1862 2332.0
69.4702 2296.0
69.7543 2248.0
70.0384 2256.0
70.3225 2293.0
70.6066 2252.0
70.8907 2257.0
71.1748 2260.0
71.4589 2221.0
71.743 2238.0
72.0271 2273.0
72.3112 2205.0
72.5952 2194.0
72.8793 2262.0
73.1634 2152.0
73.4475 2134.0
73.7316 2109.0
74.0157 2110.0
74.2998 2093.0
74.5839 2154.0
74.868 2137.0
75.1521 2202.0
75.4362 2139.0
75.7203 2103.0
76.0043 2044.0
76.2884 2092.0
76.5725 2138.0
76.8566 2222.0
77.1407 2036.0
77.4248 2163.0
77.7089 2138.0
77.993 2096.0
78.2771 2015.0
78.5612 2026.0
78.8453 2133.0
79.1294 2145.0
79.4134 2098.0
79.6975 1953.0
79.9816 2008.0
80.2657 2007.0
80.5498 1868.0
80.8339 2050.0
81.118 1912.0
81.4021 1899.0
81.6862 1950.0
81.9703 1982.0
82.2544 1929.0
82.5385 1944.0
82.8225 1899.0
83.1066 1889.0
83.3907 1900.0
83.6748 1855.0
83.9589 1920.0
84.243 1831.0
84.5271 1786.0
84.8112 1826.0
85.0953 1814.0
85.3794 1795.0
85.6635 1818.0
85.9476 1814.0
86.2316 1753.0
86.5157 1732.0
86.7998 1806.0
87.0839 1790.0
87.368 1762.0
87.6521 1830.0
87.9362 1732.0
88.2203 1755.0
88.5044 1750.0
88.7885 1670.0
89.0726 1681.0
89.3567 1788.0
89.6407 1703.0
89.9248 1709.0
89.9583 1725.0

File: 20240409_RhCo3_MCM-41_used.xy
4.98146 7443.0
5.26555 5608.0
5.54964 4609.0
5.83373 4063.0
6.11782 3986.0
6.40191 3822.0
6.68601 3702.0
6.9701 3363.0
7.25419 3297.0
7.53828 3210.0
7.82237 3088.0
8.10646 3027.0
8.39055 2943.0
8.67465 2872.0
8.95874 2814.0
9.24283 2765.0
9.52692 2755.0
9.81101 2697.0
10.0951 2687.0
10.3792 2686.0
10.6633 2666.0
10.9474 2703.0
11.2315 2616.0
11.5156 2604.0
11.7997 2781.0
12.0837 2584.0
12.3678 2540.0
12.6519 2617.0
12.936 2786.0
13.2201 2747.0
13.5042 2751.0
13.7883 2679.0
14.0724 2772.0
14.3565 2686.0
14.6406 2792.0
14.9247 2974.0
15.2088 2983.0
15.4928 3047.0
15.7769 2931.0
16.061 3238.0
16.3451 3189.0
16.6292 3396.0
16.9133 3432.0
17.1974 3598.0
17.4815 3756.0
17.7656 3664.0
18.0497 3831.0
18.3338 4090.0
18.6179 4112.0
18.9019 4315.0
19.186 4508.0
19.4701 4662.0
19.7542 4880.0
20.0383 4875.0
20.3224 5018.0
20.6065 5434.0
20.8906 5332.0
21.1747 5549.0
21.4588 5615.0
21.7429 5659.0
22.0269 5683.0
22.311 5798.0
22.5951 5951.0
22.8792 5845.0
23.1633 5745.0
23.4474 5880.0
23.7315 5748.0
24.0156 5679.0
24.2997 5678.0
24.5838 5683.0
24.8679 5547.0
25.152 5566.0
25.436 5316.0
25.7201 5227.0
26.0042 5207.0
26.2883 5151.0
26.5724 4998.0
26.8565 4935.0
27.1406 4768.0
27.4247 4756.0
27.7088 4714.0
27.9929 4599.0
28.277 4448.0
28.5611 4436.0
28.8451 4236.0
29.1292 4369.0
29.4133 4154.0
29.6974 4048.0
29.9815 4213.0
30.2656 4063.0
30.5497 3922.0
30.8338 3822.0
31.1179 3913.0
31.402 3819.0
31.6861 3746.0
31.9702 3678.0
32.2542 3795.0
32.5383 3508.0
32.8224 3695.0
33.1065 3642.0
33.3906 3627.0
33.6747 3601.0
33.9588 3606.0
34.2429 3364.0
34.527 3513.0
34.8111 3458.0
35.0952 3497.0
35.3793 3513.0
35.6633 3336.0
35.9474 3400.0
36.2315 3349.0
36.5156 3214.0
36.7997 3331.0
37.0838 3284.0
37.3679 3239.0
37.652 3208.0
37.9361 3248.0
38.2202 3280.0
38.5043 3244.0
38.7884 3237.0
39.0724 3103.0
39.3565 3218.0
39.6406 3142.0
39.9247 3192.0
40.2088 3201.0
40.4929 3130.0
40.777 3170.0
41.0611 3216.0
41.3452 3164.0
41.6293 3165.0
41.9134 3273.0
42.1975 3215.0
42.4815 3262.0
42.7656 3184.0
43.0497 3189.0
43.3338 3197.0
43.6179 3141.0
43.902 3170.0
44.1861 3202.0
44.4702 3086.0
44.7543 3199.0
45.0384 3118.0
45.3225 3246.0
45.6066 3030.0
45.8906 3017.0
46.1747 2951.0
46.4588 3013.0
46.7429 3098.0
47.027 3193.0
47.3111 3073.0
47.5952 3013.0
47.8793 2955.0
48.1634 2997.0
48.4475 3042.0
48.7316 3001.0
49.0156 3041.0
49.2997 2935.0
49.5838 3084.0
49.8679 3123.0
50.152 3061.0
50.4361 2931.0
50.7202 2909.0
51.0043 2981.0
51.2884 2865.0
51.5725 2906.0
51.8566 2939.0
52.1407 2867.0
52.4247 2861.0
52.7088 2844.0
52.9929 3004.0
53.277 2826.0
53.5611 2889.0
53.8452 2814.0
54.1293 2818.0
54.4134 2878.0
54.6975 2936.0
54.9816 2986.0
55.2657 2842.0
55.5498 2894.0
55.8338 2946.0
56.1179 2788.0
56.402 2840.0
56.6861 2813.0
56.9702 2882.0
57.2543 2859.0
57.5384 2987.0
57.8225 2907.0
58.1066 2931.0
58.3907 2839.0
58.6748 2850.0
58.9589 2913.0
59.2429 2888.0
59.527 2932.0
59.8111 2881.0
60.0952 2927.0
60.3793 2914.0
60.6634 2847.0
60.9475 2970.0
61.2316 2943.0
61.5157 2940.0
61.7998 2985.0
62.0839 2846.0
62.368 2908.0
62.652 3019.0
62.9361 2890.0
63.2202 2961.0
63.5043 2858.0
63.7884 2946.0
64.0725 2990.0
64.3566 2866.0
64.6407 2839.0
64.9248 2841.0
65.2089 2951.0
65.493 2935.0
65.7771 2972.0
66.0611 2831.0
66.3452 2929.0
66.6293 2891.0
66.9134 2826.0
67.1975 2891.0
67.4816 2830.0
67.7657 2889.0
68.0498 2978.0
68.3339 2899.0
68.618 2958.0
68.9021 2898.0
69.1862 2863.0
69.4702 2848.0
69.7543 2831.0
70.0384 2912.0
70.3225 2910.0
70.6066 2862.0
70.8907 2844.0
71.1748 2915.0
71.4589 2892.0
71.743 2947.0
72.0271 2936.0
72.3112 2837.0
72.5952 2925.0
72.8793 2888.0
73.1634 2854.0
73.4475 2809.0
73.7316 2797.0
74.0157 2812.0
74.2998 2849.0
74.5839 2893.0
74.868 2879.0
75.1521 2853.0
75.4362 2779.0
75.7203 2818.0
76.0043 2834.0
76.2884 2784.0
76.5725 2794.0
76.8566 2940.0
77.1407 2648.0
77.4248 2700.0
77.7089 2699.0
77.993 2730.0
78.2771 2775.0
78.5612 2725.0
78.8453 2757.0
79.1294 2691.0
79.4134 2598.0
79.6975 2729.0
79.9816 2685.0
80.2657 2807.0
80.5498 2589.0
80.8339 2677.0
81.118 2698.0
81.4021 2684.0
81.6862 2639.0
81.9703 2623.0
82.2544 2660.0
82.5385 2573.0
82.8225 2628.0
83.1066 2545.0
83.3907 2500.0
83.6748 2547.0
83.9589 2538.0
84.243 2345.0
84.5271 2483.0
84.8112 2492.0
85.0953 2433.0
85.3794 2483.0
85.6635 2463.0
85.9476 2470.0
86.2316 2506.0
86.5157 2383.0
86.7998 2325.0
87.0839 2337.0
87.368 2415.0
87.6521 2462.0
87.9362 2313.0
88.2203 2325.0
88.5044 2210.0
88.7885 2322.0
89.0726 2242.0
89.3567 2241.0
89.6407 2372.0
89.9248 2339.0
89.9583 2342.0

File: 25012024_ZnZrOx_calc.xy
4.98146 1203.0
5.26555 1075.0
5.54964 1038.0
5.83373 960.0
6.11782 879.0
6.40191 844.0
6.68601 879.0
6.9701 734.0
7.25419 754.0
7.53828 696.0
7.82237 667.0
8.10646 654.0
8.39055 579.0
8.67465 610.0
8.95874 595.0
9.24283 543.0
9.52692 554.0
9.81101 570.0
10.0951 508.0
10.3792 534.0
10.6633 470.0
10.9474 435.0
11.2315 472.0
11.5156 411.0
11.7997 396.0
12.0837 445.0
12.3678 395.0
12.6519 369.0
12.936 367.0
13.2201 385.0
13.5042 368.0
13.7883 357.0
14.0724 347.0
14.3565 334.0
14.6406 341.0
14.9247 340.0
15.2088 338.0
15.4928 338.0
15.7769 310.0
16.061 282.0
16.3451 317.0
16.6292 319.0
16.9133 305.0
17.1974 272.0
17.4815 256.0
17.7656 284.0
18.0497 291.0
18.3338 292.0
18.6179 294.0
18.9019 257.0
19.186 288.0
19.4701 289.0
19.7542 293.0
20.0383 289.0
20.3224 289.0
20.6065 264.0
20.8906 295.0
21.1747 293.0
21.4588 302.0
21.7429 286.0
22.0269 288.0
22.311 293.0
22.5951 298.0
22.8792 346.0
23.1633 328.0
23.4474 355.0
23.7315 360.0
24.0156 365.0
24.2997 383.0
24.5838 394.0
24.8679 431.0
25.152 395.0
25.436 435.0
25.7201 411.0
26.0042 458.0
26.2883 507.0
26.5724 538.0
26.8565 513.0
27.1406 545.0
27.4247 623.0
27.7088 654.0
27.9929 651.0
28.277 691.0
28.5611 760.0
28.8451 817.0
29.1292 943.0
29.4133 1103.0
29.6974 1275.0
29.9815 1735.0
30.2656 3384.0
30.5497 6723.0
30.8338 2597.0
31.1179 1501.0
31.402 1144.0
31.6861 1090.0
31.9702 1033.0
32.2542 1018.0
32.5383 1022.0
32.8224 960.0
33.1065 947.0
33.3906 976.0
33.6747 922.0
33.9588 804.0
34.2429 830.0
34.527 805.0
34.8111 813.0
35.0952 1052.0
35.3793 1773.0
35.6633 928.0
35.9474 604.0
36.2315 462.0
36.5156 363.0
36.7997 383.0
37.0838 326.0
37.3679 342.0
37.652 308.0
37.9361 294.0
38.2202 253.0
38.5043 258.0
38.7884 276.0
39.0724 291.0
39.3565 269.0
39.6406 244.0
39.9247 314.0
40.2088 291.0
40.4929 238.0
40.777 295.0
41.0611 282.0
41.3452 268.0
41.6293 275.0
41.9134 317.0
42.1975 300.0
42.4815 320.0
42.7656 304.0
43.0497 299.0
43.3338 349.0
43.6179 326.0
43.902 316.0
44.1861 320.0
44.4702 342.0
44.7543 381.0
45.0384 348.0
45.3225 375.0
45.6066 357.0
45.8906 345.0
46.1747 426.0
46.4588 386.0
46.7429 428.0
47.027 422.0
47.3111 426.0
47.5952 401.0
47.8793 407.0
48.1634 469.0
48.4475 505.0
48.7316 560.0
49.0156 514.0
49.2997 603.0
49.5838 609.0
49.8679 755.0
50.152 909.0
50.4361 1362.0
50.7202 2421.0
51.0043 2610.0
51.2884 1316.0
51.5725 737.0
51.8566 623.0
52.1407 575.0
52.4247 493.0
52.7088 523.0
52.9929 526.0
53.277 493.0
53.5611 487.0
53.8452 466.0
54.1293 507.0
54.4134 477.0
54.6975 519.0
54.9816 480.0
55.2657 449.0
55.5498 466.0
55.8338 464.0
56.1179 448.0
56.402 480.0
56.6861 497.0
56.9702 482.0
57.2543 490.0
57.5384 491.0
57.8225 453.0
58.1066 523.0
58.3907 538.0
58.6748 518.0
58.9589 587.0
59.2429 659.0
59.527 695.0
59.8111 823.0
60.0952 1106.0
60.3793 1906.0
60.6634 1725.0
60.9475 982.0
61.2316 605.0
61.5157 509.0
61.7998 446.0
62.0839 471.0
62.368 473.0
62.652 465.0
62.9361 502.0
63.2202 524.0
63.5043 579.0
63.7884 500.0
64.0725 394.0
64.3566 365.0
64.6407 364.0
64.9248 322.0
65.2089 319.0
65.493 288.0
65.7771 308.0
66.0611 317.0
66.3452 321.0
66.6293 275.0
66.9134 301.0
67.1975 253.0
67.4816 258.0
67.7657 278.0
68.0498 298.0
68.3339 262.0
68.618 232.0
68.9021 210.0
69.1862 224.0
69.4702 226.0
69.7543 236.0
70.0384 240.0
70.3225 252.0
70.6066 213.0
70.8907 230.0
71.1748 238.0
71.4589 248.0
71.743 211.0
72.0271 233.0
72.3112 219.0
72.5952 213.0
72.8793 207.0
73.1634 195.0
73.4475 221.0
73.7316 258.0
74.0157 244.0
74.2998 294.0
74.5839 350.0
74.868 398.0
75.1521 334.0
75.4362 254.0
75.7203 204.0
76.0043 201.0
76.2884 180.0
76.5725 185.0
76.8566 195.0
77.1407 198.0
77.4248 193.0
77.7089 208.0
77.993 194.0
78.2771 224.0
78.5612 215.0
78.8453 198.0
79.1294 237.0
79.4134 215.0
79.6975 213.0
79.9816 213.0
80.2657 195.0
80.5498 225.0
80.8339 252.0
81.118 245.0
81.4021 233.0
81.6862 323.0
81.9703 324.0
82.2544 430.0
82.5385 488.0
82.8225 584.0
83.1066 544.0
83.3907 365.0
83.6748 291.0
83.9589 293.0
84.243 297.0
84.5271 329.0
84.8112 318.0
85.0953 383.0
85.3794 432.0
85.6635 456.0
85.9476 330.0
86.2316 266.0
86.5157 274.0
86.7998 250.0
87.0839 210.0
87.368 204.0
87.6521 231.0
87.9362 216.0
88.2203 244.0
88.5044 212.0
88.7885 247.0
89.0726 225.0
89.3567 236.0
89.6407 240.0
89.9248 212.0
89.9415 236.0

File: RUB-50_reference.txt
ICDD 00-42-0024

No.	h	k	l	d [Å]	2θ [°]	I [%]
1	-1	0	1	11.14870	7.924	37.0
2	0	1	1	11.13470	7.934	100.0
3	1	0	1	11.03750	8.004	32.0
4	0	2	0	10.04840	8.793	48.0
5	2	0	0	9.93568	8.893	52.0
6	-1	1	1	9.74983	9.063	14.0
7	1	1	1	9.67531	9.133	14.0
8	1	2	0	8.97036	9.852	1.0
9	0	2	1	8.03585	11.001	1.0
10	-2	1	1	7.44925	11.871	1.0
11	2	1	1	7.37503	11.991	1.0
12	0	0	2	6.68195	13.240	7.0
13	0	1	2	6.34366	13.949	11.0
14	-1	1	2	6.06286	14.599	1.0
15	0	3	1	5.98948	14.778	14.0
16	-3	0	1	5.96541	14.838	3.0
17	3	0	1	5.91001	14.978	5.0
18	-3	1	1	5.71668	15.488	5.0
19	3	1	1	5.66943	15.618	5.0
20	-2	0	2	5.57724	15.878	2.0
21	0	2	2	5.56680	15.908	6.0
22	3	2	0	5.53228	16.007	1.0
23	2	0	2	5.51517	16.057	1.0
24	-2	1	2	5.37240	16.487	2.0
25	2	1	2	5.32117	16.647	2.0
26	-2	3	1	5.14343	17.226	1.0
27	2	3	1	5.11985	17.306	1.0
28	0	4	0	5.02769	17.626	4.0
29	4	0	0	4.96901	17.836	5.0
30	1	4	0	4.87424	18.186	1.0
31	0	4	1	4.70513	18.845	1.0
32	-1	3	2	4.61305	19.225	2.0
33	1	3	2	4.59413	19.305	2.0
34	-1	0	3	4.35963	20.354	2.0
35	0	1	3	4.35117	20.394	2.0
36	1	0	3	4.33646	20.464	1.0
37	-3	2	2	4.28268	20.724	1.0
38	-2	4	1	4.25831	20.844	3.0
39	2	4	1	4.24624	20.903	3.0
40	3	2	2	4.24223	20.923	1.0
41	0	2	3	4.07309	21.803	2.0
42	3	4	0	4.00422	22.182	3.0
43	0	5	1	3.85021	23.082	45.0
44	3	3	2	3.83547	23.172	1.0
45	-5	0	1	3.82246	23.252	16.0
46	5	0	1	3.79832	23.401	18.0
47	-5	1	1	3.75564	23.671	8.0
48	5	1	1	3.73235	23.821	11.0
49	-3	0	3	3.71698	23.921	1.0
50	0	3	3	3.71087	23.961	23.0
51	5	2	0	3.69720	24.051	1.0
52	3	0	3	3.67763	24.181	2.0
53	-3	1	3	3.65532	24.331	8.0
54	3	1	3	3.61728	24.591	8.0
55	-2	5	1	3.59428	24.750	1.0
56	2	5	1	3.58715	24.800	1.0
57	-2	3	3	3.48764	25.520	2.0
58	2	3	3	3.46496	25.690	1.0
59	3	2	3	3.45308	25.780	1.0
60	-3	4	2	3.44651	25.830	3.0
61	3	4	2	3.42438	25.999	4.0
62	-1	5	2	3.39871	26.199	1.0
63	5	1	2	3.35225	26.569	1.0
64	0	6	0	3.35101	26.579	3.0
65	6	0	0	3.31311	26.889	3.0
66	0	1	4	3.29628	27.029	5.0
67	-1	1	4	3.25846	27.348	1.0
68	-5	2	2	3.25031	27.418	2.0
69	0	6	1	3.25031	27.418	2.0
70	5	2	2	3.22039	27.678	1.0
71	0	2	4	3.17103	28.118	1.0
72	-2	1	4	3.13934	28.407	1.0
73	-5	3	2	3.05624	29.197	3.0
74	5	3	2	3.03188	29.437	3.0
75	3	6	0	2.99022	29.856	1.0
76	0	5	3	2.98534	29.906	7.0
77	-5	0	3	2.98339	29.926	4.0
78	-1	3	4	2.96213	30.146	1.0
79	-5	1	3	2.95162	30.256	3.0
80	5	0	3	2.94972	30.276	2.0
81	5	1	3	2.91776	30.616	1.0
82	-2	5	3	2.86486	31.195	1.0
83	2	5	3	2.85328	31.325	1.0
84	-5	4	2	2.83565	31.525	1.0
85	-7	0	1	2.78408	32.124	1.0
86	-3	6	2	2.73525	32.714	2.0
87	3	6	2	2.72392	32.854	1.0
88	0	6	3	2.67802	33.433	1.0
89	-1	0	5	2.65338	33.753	1.0
90	-5	5	2	2.61138	34.312	2.0
91	5	5	2	2.59599	34.522	1.0
92	-3	7	1	2.58800	34.632	1.0
93	-5	1	4	2.55234	35.132	1.0
94	-1	5	4	2.55163	35.142	1.0
95	0	8	0	2.51291	35.701	2.0
96	8	0	0	2.48468	36.121	1.0
97	0	3	5	2.48335	36.141	1.0
98	7	4	0	2.47212	36.311	1.0
99	-3	1	5	2.47081	36.331	1.0
100	0	7	3	2.41442	37.210	1.0
101	-5	6	2	2.39827	37.470	1.0
102	-7	1	3	2.39029	37.600	1.0
103	3	5	4	2.38906	37.620	1.0
104	5	3	4	2.37811	37.799	1.0
105	0	7	4	2.17840	41.416	1.0
106	0	10	0	2.01065	45.053	3.0
107	0	8	4	2.00854	45.103	4.0
108	-8	0	4	2.00517	45.183	1.0
109	-8	4	3	2.00056	45.293	1.0
110	10	0	0	1.98769	45.602	5.0
111	8	4	3	1.98399	45.692	1.0
112	8	0	4	1.98276	45.722	2.0
113	-3	4	6	1.95291	46.462	1.0
114	8	2	4	1.94541	46.651	1.0
115	3	4	6	1.94109	46.761	1.0
116	-5	8	3	1.92211	47.251	1.0
117	-3	9	3	1.91487	47.441	1.0
118	5	8	3	1.91297	47.491	1.0
119	3	9	3	1.90919	47.590	1.0
120	-5	3	6	1.87514	48.510	1.0

ICDD 00-047-0675
No.	h	k	l	d [Å]	2θ [°]	I [%]
1				14.30000	6.176	3.0
2				11.42000	7.735	100.0
3				10.65000	8.295	3.0
4				10.25000	8.620	3.0
5				9.88000	8.943	6.0
6				9.37000	9.431	12.0
7				9.00700	9.812	6.0
8				6.74800	13.109	13.0
9				6.29000	14.069	10.0
10				6.00600	14.738	6.0
11				5.70600	15.517	9.0
12				5.53900	15.988	2.0
13				5.33100	16.616	5.0
14				4.49500	19.735	9.0
15				4.40000	20.165	60.0
16				4.26000	20.835	5.0
17				4.17700	21.254	21.0
18				4.05800	21.885	55.0
19				3.88300	22.884	49.0
20				3.86200	23.010	98.0
21				3.53800	25.150	18.0
22				3.37000	26.426	58.0
23				3.35100	26.579	36.0
24				3.14000	28.401	12.0
25				3.08900	28.880	15.0
26				3.01500	29.605	4.0
27				2.94000	30.378	10.0
28				2.84800	31.384	8.0
29				2.79700	31.972	7.0
30				2.69300	33.242	11.0
31				2.53700	35.351	9.0
32				2.52000	35.597	4.0
33				2.47300	36.297	4.0
34				2.44300	36.759	5.0
35				2.40900	37.297	2.0
36				2.34900	38.286	4.0
37				2.24600	40.115	4.0
38				2.15100	41.969	1.0
39				2.13100	42.381	1.0
40				2.06900	43.716	7.0