Folder: bachelor_thesis/code/XRD_Analysis/External Sources/Fabian (part 2)

File: 20240402_RUB-50_calc_morematerial.xy
4.98146 1373.0
5.26555 1302.0
5.54964 1243.0
5.83373 1157.0
6.11782 1156.0
6.40191 1113.0
6.68601 1081.0
6.9701 1298.0
7.25419 2550.0
7.53828 1625.0
7.82237 1391.0
8.10646 1620.0
8.39055 1704.0
8.67465 1656.0
8.95874 1607.0
9.24283 1590.0
9.52692 1622.0
9.81101 1574.0
10.0951 1400.0
10.3792 1156.0
10.6633 959.0
10.9474 826.0
11.2315 768.0
11.5156 662.0
11.7997 648.0
12.0837 630.0
12.3678 670.0
12.6519 774.0
12.936 824.0
13.2201 759.0
13.5042 716.0
13.7883 758.0
14.0724 844.0
14.3565 1258.0
14.6406 1972.0
14.9247 1423.0
15.2088 1193.0
15.4928 1104.0
15.7769 1052.0
16.061 1081.0
16.3451 957.0
16.6292 818.0
16.9133 744.0
17.1974 709.0
17.4815 616.0
17.7656 707.0
18.0497 806.0
18.3338 822.0
18.6179 904.0
18.9019 1015.0
19.186 1230.0
19.4701 1256.0
19.7542 1326.0
20.0383 1425.0
20.3224 1366.0
20.6065 1267.0
20.8906 1135.0
21.1747 1043.0
21.4588 1164.0
21.7429 1607.0
22.0269 1960.0
22.311 2506.0
22.5951 2811.0
22.8792 2828.0
23.1633 2470.0
23.4474 1976.0
23.7315 1941.0
24.0156 1688.0
24.2997 1533.0
24.5838 1299.0
24.8679 1341.0
25.152 1868.0
25.436 1987.0
25.7201 1738.0
26.0042 2466.0
26.2883 3805.0
26.5724 2407.0
26.8565 2225.0
27.1406 2176.0
27.4247 1893.0
27.7088 1596.0
27.9929 1600.0
28.277 1408.0
28.5611 1281.0
28.8451 1242.0
29.1292 1149.0
29.4133 1069.0
29.6974 901.0
29.9815 859.0
30.2656 837.0
30.5497 798.0
30.8338 710.0
31.1179 710.0
31.402 767.0
31.6861 825.0
31.9702 937.0
32.2542 815.0
32.5383 810.0
32.8224 785.0
33.1065 867.0
33.3906 837.0
33.6747 917.0
33.9588 854.0
34.2429 802.0
34.527 729.0
34.8111 690.0
35.0952 676.0
35.3793 605.0
35.6633 584.0
35.9474 589.0
36.2315 567.0
36.5156 561.0
36.7997 589.0
37.0838 511.0
37.3679 510.0
37.652 594.0
37.9361 581.0
38.2202 656.0
38.5043 559.0
38.7884 503.0
39.0724 465.0
39.3565 473.0
39.6406 450.0
39.9247 444.0
40.2088 450.0
40.4929 461.0
40.777 477.0
41.0611 442.0
41.3452 430.0
41.6293 422.0
41.9134 461.0
42.1975 461.0
42.4815 442.0
42.7656 451.0
43.0497 457.0
43.3338 470.0
43.6179 401.0
43.902 473.0
44.1861 426.0
44.4702 500.0
44.7543 495.0
45.0384 526.0
45.3225 449.0
45.6066 477.0
45.8906 517.0
46.1747 507.0
46.4588 563.0
46.7429 605.0
47.027 563.0
47.3111 470.0
47.5952 457.0
47.8793 417.0
48.1634 476.0
48.4475 508.0
48.7316 497.0
49.0156 523.0
49.2997 529.0
49.5838 527.0
49.8679 522.0
50.152 441.0
50.4361 442.0
50.7202 471.0
51.0043 449.0
51.2884 471.0
51.5725 505.0
51.8566 470.0
52.1407 496.0
52.4247 520.0
52.7088 485.0
52.9929 461.0
53.277 395.0
53.5611 434.0
53.8452 450.0
54.1293 419.0
54.4134 386.0
54.6975 399.0
54.9816 367.0
55.2657 392.0
55.5498 373.0
55.8338 370.0
56.1179 377.0
56.402 373.0
56.6861 402.0
56.9702 423.0
57.2543 385.0
57.5384 402.0
57.8225 358.0
58.1066 355.0
58.3907 345.0
58.6748 388.0
58.9589 336.0
59.2429 406.0
59.527 351.0
59.8111 385.0
60.0952 368.0
60.3793 403.0
60.6634 358.0
60.9475 401.0
61.2316 365.0
61.5157 411.0
61.7998 420.0
62.0839 430.0
62.368 377.0
62.652 457.0
62.9361 389.0
63.2202 398.0
63.5043 392.0
63.7884 364.0
64.0725 375.0
64.3566 413.0
64.6407 407.0
64.9248 445.0
65.2089 450.0
65.493 497.0
65.7771 523.0
66.0611 528.0
66.3452 488.0
66.6293 488.0
66.9134 414.0
67.1975 414.0
67.4816 366.0
67.7657 391.0
68.0498 392.0
68.3339 369.0
68.618 319.0
68.9021 381.0
69.1862 379.0
69.4702 370.0
69.7543 306.0
70.0384 364.0
70.3225 367.0
70.6066 377.0
70.8907 358.0
71.1748 353.0
71.4589 363.0
71.743 358.0
72.0271 348.0
72.3112 349.0
72.5952 329.0
72.8793 389.0
73.1634 364.0
73.4475 353.0
73.7316 331.0
74.0157 373.0
74.2998 389.0
74.5839 317.0
74.868 349.0
75.1521 341.0
75.4362 346.0
75.7203 333.0
76.0043 335.0
76.2884 304.0
76.5725 365.0
76.8566 331.0
77.1407 338.0
77.4248 336.0
77.7089 339.0
77.993 325.0
78.2771 350.0
78.5612 356.0
78.8453 362.0
79.1294 377.0
79.4134 336.0
79.6975 337.0
79.9816 321.0
80.2657 295.0
80.5498 317.0
80.8339 308.0
81.118 298.0
81.4021 300.0
81.6862 277.0
81.9703 308.0
82.2544 262.0
82.5385 257.0
82.8225 236.0
83.1066 244.0
83.3907 260.0
83.6748 253.0
83.9589 250.0
84.243 211.0
84.5271 199.0
84.8112 237.0
85.0953 204.0
85.3794 217.0
85.6635 196.0
85.9476 224.0
86.2316 208.0
86.5157 203.0
86.7998 198.0
87.0839 196.0
87.368 172.0
87.6521 205.0
87.9362 200.0
88.2203 195.0
88.5044 172.0
88.7885 180.0
89.0726 200.0
89.3567 184.0
89.6407 216.0
89.9248 194.0
89.9415 183.0

File: 20240402_RUB-50_notcalc_lessmaterial.xy
4.98146 1267.0
5.26555 1114.0
5.54964 1082.0
5.83373 1075.0
6.11782 1153.0
6.40191 1353.0
6.68601 1914.0
6.9701 1663.0
7.25419 2590.0
7.53828 951.0
7.82237 1070.0
8.10646 1435.0
8.39055 1502.0
8.67465 1494.0
8.95874 1468.0
9.24283 1334.0
9.52692 1244.0
9.81101 1076.0
10.0951 865.0
10.3792 747.0
10.6633 648.0
10.9474 520.0
11.2315 532.0
11.5156 459.0
11.7997 462.0
12.0837 463.0
12.3678 513.0
12.6519 557.0
12.936 663.0
13.2201 669.0
13.5042 710.0
13.7883 590.0
14.0724 549.0
14.3565 656.0
14.6406 704.0
14.9247 627.0
15.2088 602.0
15.4928 607.0
15.7769 629.0
16.061 615.0
16.3451 570.0
16.6292 539.0
16.9133 488.0
17.1974 456.0
17.4815 430.0
17.7656 492.0
18.0497 527.0
18.3338 612.0
18.6179 690.0
18.9019 922.0
19.186 1089.0
19.4701 1376.0
19.7542 1722.0
20.0383 2120.0
20.3224 1854.0
20.6065 1393.0
20.8906 1129.0
21.1747 1091.0
21.4588 1191.0
21.7429 1542.0
22.0269 2208.0
22.311 2788.0
22.5951 2649.0
22.8792 2259.0
23.1633 1903.0
23.4474 1820.0
23.7315 1458.0
24.0156 1276.0
24.2997 1118.0
24.5838 1071.0
24.8679 1586.0
25.152 1916.0
25.436 1253.0
25.7201 1916.0
26.0042 4227.0
26.2883 2315.0
26.5724 2409.0
26.8565 2103.0
27.1406 1555.0
27.4247 1341.0
27.7088 1070.0
27.9929 1041.0
28.277 940.0
28.5611 915.0
28.8451 985.0
29.1292 955.0
29.4133 810.0
29.6974 731.0
29.9815 631.0
30.2656 663.0
30.5497 595.0
30.8338 531.0
31.1179 490.0
31.402 666.0
31.6861 803.0
31.9702 583.0
32.2542 582.0
32.5383 657.0
32.8224 752.0
33.1065 755.0
33.3906 839.0
33.6747 786.0
33.9588 720.0
34.2429 680.0
34.527 619.0
34.8111 584.0
35.0952 560.0
35.3793 486.0
35.6633 479.0
35.9474 442.0
36.2315 505.0
36.5156 519.0
36.7997 456.0
37.0838 510.0
37.3679 511.0
37.652 611.0
37.9361 651.0
38.2202 424.0
38.5043 396.0
38.7884 420.0
39.0724 427.0
39.3565 431.0
39.6406 426.0
39.9247 386.0
40.2088 396.0
40.4929 395.0
40.777 456.0
41.0611 412.0
41.3452 362.0
41.6293 369.0
41.9134 368.0
42.1975 413.0
42.4815 391.0
42.7656 416.0
43.0497 406.0
43.3338 397.0
43.6179 381.0
43.902 435.0
44.1861 475.0
44.4702 481.0
44.7543 500.0
45.0384 510.0
45.3225 441.0
45.6066 440.0
45.8906 566.0
46.1747 625.0
46.4588 578.0
46.7429 465.0
47.027 415.0
47.3111 383.0
47.5952 387.0
47.8793 444.0
48.1634 493.0
48.4475 592.0
48.7316 579.0
49.0156 582.0
49.2997 469.0
49.5838 429.0
49.8679 380.0
50.152 383.0
50.4361 385.0
50.7202 387.0
51.0043 435.0
51.2884 472.0
51.5725 558.0
51.8566 585.0
52.1407 538.0
52.4247 471.0
52.7088 438.0
52.9929 407.0
53.277 428.0
53.5611 418.0
53.8452 370.0
54.1293 350.0
54.4134 311.0
54.6975 314.0
54.9816 291.0
55.2657 278.0
55.5498 289.0
55.8338 311.0
56.1179 389.0
56.402 355.0
56.6861 351.0
56.9702 314.0
57.2543 363.0
57.5384 337.0
57.8225 353.0
58.1066 336.0
58.3907 320.0
58.6748 329.0
58.9589 367.0
59.2429 370.0
59.527 400.0
59.8111 378.0
60.0952 397.0
60.3793 388.0
60.6634 357.0
60.9475 344.0
61.2316 418.0
61.5157 387.0
61.7998 386.0
62.0839 332.0
62.368 341.0
62.652 370.0
62.9361 357.0
63.2202 357.0
63.5043 356.0
63.7884 378.0
64.0725 413.0
64.3566 424.0
64.6407 478.0
64.9248 500.0
65.2089 603.0
65.493 622.0
65.7771 531.0
66.0611 486.0
66.3452 472.0
66.6293 430.0
66.9134 375.0
67.1975 404.0
67.4816 371.0
67.7657 355.0
68.0498 341.0
68.3339 322.0
68.618 288.0
68.9021 295.0
69.1862 341.0
69.4702 317.0
69.7543 340.0
70.0384 344.0
70.3225 326.0
70.6066 284.0
70.8907 315.0
71.1748 306.0
71.4589 295.0
71.743 262.0
72.0271 287.0
72.3112 347.0
72.5952 372.0
72.8793 323.0
73.1634 376.0
73.4475 392.0
73.7316 329.0
74.0157 321.0
74.2998 319.0
74.5839 347.0
74.868 311.0
75.1521 301.0
75.4362 293.0
75.7203 322.0
76.0043 339.0
76.2884 322.0
76.5725 351.0
76.8566 317.0
77.1407 305.0
77.4248 331.0
77.7089 319.0
77.993 362.0
78.2771 377.0
78.5612 364.0
78.8453 347.0
79.1294 345.0
79.4134 344.0
79.6975 298.0
79.9816 288.0
80.2657 289.0
80.5498 294.0
80.8339 260.0
81.118 286.0
81.4021 239.0
81.6862 285.0
81.9703 241.0
82.2544 264.0
82.5385 262.0
82.8225 257.0
83.1066 239.0
83.3907 216.0
83.6748 213.0
83.9589 246.0
84.243 225.0
84.5271 243.0
84.8112 238.0
85.0953 208.0
85.3794 209.0
85.6635 185.0
85.9476 228.0
86.2316 200.0
86.5157 193.0
86.7998 197.0
87.0839 195.0
87.368 185.0
87.6521 199.0
87.9362 172.0
88.2203 186.0
88.5044 194.0
88.7885 194.0
89.0726 179.0
89.3567 200.0
89.6407 198.0
89.9248 207.0
89.9415 239.0

File: 20240402_RUB-50_notcalc_morematerial.xy
4.98146 1276.0
5.26555 1182.0
5.54964 1130.0
5.83373 1205.0
6.11782 1319.0
6.40191 1683.0
6.68601 2516.0
6.9701 2079.0
7.25419 3358.0
7.53828 1121.0
7.82237 1277.0
8.10646 1751.0
8.39055 1898.0
8.67465 1835.0
8.95874 1714.0
9.24283 1680.0
9.52692 1526.0
9.81101 1322.0
10.0951 1068.0
10.3792 787.0
10.6633 686.0
10.9474 540.0
11.2315 567.0
11.5156 481.0
11.7997 512.0
12.0837 496.0
12.3678 506.0
12.6519 674.0
12.936 744.0
13.2201 743.0
13.5042 822.0
13.7883 701.0
14.0724 629.0
14.3565 797.0
14.6406 876.0
14.9247 742.0
15.2088 669.0
15.4928 761.0
15.7769 772.0
16.061 705.0
16.3451 770.0
16.6292 653.0
16.9133 579.0
17.1974 500.0
17.4815 486.0
17.7656 621.0
18.0497 618.0
18.3338 745.0
18.6179 888.0
18.9019 1087.0
19.186 1376.0
19.4701 1769.0
19.7542 2269.0
20.0383 2574.0
20.3224 2354.0
20.6065 1823.0
20.8906 1430.0
21.1747 1356.0
21.4588 1453.0
21.7429 1735.0
22.0269 2828.0
22.311 3458.0
22.5951 3240.0
22.8792 2727.0
23.1633 2464.0
23.4474 2148.0
23.7315 1845.0
24.0156 1553.0
24.2997 1453.0
24.5838 1323.0
24.8679 1817.0
25.152 2268.0
25.436 1509.0
25.7201 2080.0
26.0042 5082.0
26.2883 2777.0
26.5724 2736.0
26.8565 2483.0
27.1406 1818.0
27.4247 1460.0
27.7088 1283.0
27.9929 1173.0
28.277 1069.0
28.5611 1055.0
28.8451 1017.0
29.1292 1121.0
29.4133 989.0
29.6974 822.0
29.9815 783.0
30.2656 740.0
30.5497 660.0
30.8338 586.0
31.1179 574.0
31.402 688.0
31.6861 873.0
31.9702 628.0
32.2542 725.0
32.5383 691.0
32.8224 776.0
33.1065 880.0
33.3906 926.0
33.6747 884.0
33.9588 815.0
34.2429 727.0
34.527 641.0
34.8111 649.0
35.0952 620.0
35.3793 506.0
35.6633 446.0
35.9474 438.0
36.2315 541.0
36.5156 590.0
36.7997 473.0
37.0838 523.0
37.3679 502.0
37.652 609.0
37.9361 736.0
38.2202 474.0
38.5043 420.0
38.7884 375.0
39.0724 393.0
39.3565 422.0
39.6406 434.0
39.9247 400.0
40.2088 403.0
40.4929 462.0
40.777 479.0
41.0611 432.0
41.3452 388.0
41.6293 424.0
41.9134 376.0
42.1975 386.0
42.4815 423.0
42.7656 427.0
43.0497 438.0
43.3338 461.0
43.6179 441.0
43.902 444.0
44.1861 432.0
44.4702 532.0
44.7543 544.0
45.0384 510.0
45.3225 494.0
45.6066 492.0
45.8906 569.0
46.1747 688.0
46.4588 561.0
46.7429 492.0
47.027 364.0
47.3111 368.0
47.5952 369.0
47.8793 461.0
48.1634 507.0
48.4475 567.0
48.7316 556.0
49.0156 492.0
49.2997 504.0
49.5838 410.0
49.8679 397.0
50.152 378.0
50.4361 391.0
50.7202 392.0
51.0043 462.0
51.2884 480.0
51.5725 526.0
51.8566 578.0
52.1407 548.0
52.4247 495.0
52.7088 427.0
52.9929 433.0
53.277 378.0
53.5611 379.0
53.8452 347.0
54.1293 341.0
54.4134 284.0
54.6975 314.0
54.9816 294.0
55.2657 277.0
55.5498 286.0
55.8338 355.0
56.1179 372.0
56.402 398.0
56.6861 351.0
56.9702 333.0
57.2543 369.0
57.5384 336.0
57.8225 320.0
58.1066 347.0
58.3907 345.0
58.6748 310.0
58.9589 358.0
59.2429 308.0
59.527 333.0
59.8111 360.0
60.0952 370.0
60.3793 337.0
60.6634 337.0
60.9475 334.0
61.2316 380.0
61.5157 347.0
61.7998 346.0
62.0839 340.0
62.368 333.0
62.652 282.0
62.9361 347.0
63.2202 350.0
63.5043 352.0
63.7884 340.0
64.0725 376.0
64.3566 425.0
64.6407 401.0
64.9248 482.0
65.2089 540.0
65.493 566.0
65.7771 547.0
66.0611 471.0
66.3452 448.0
66.6293 406.0
66.9134 354.0
67.1975 371.0
67.4816 362.0
67.7657 298.0
68.0498 306.0
68.3339 313.0
68.618 280.0
68.9021 314.0
69.1862 272.0
69.4702 292.0
69.7543 324.0
70.0384 316.0
70.3225 336.0
70.6066 284.0
70.8907 298.0
71.1748 289.0
71.4589 275.0
71.743 295.0
72.0271 283.0
72.3112 366.0
72.5952 319.0
72.8793 345.0
73.1634 351.0
73.4475 313.0
73.7316 322.0
74.0157 317.0
74.2998 311.0
74.5839 282.0
74.868 276.0
75.1521 307.0
75.4362 299.0
75.7203 304.0
76.0043 320.0
76.2884 311.0
76.5725 270.0
76.8566 336.0
77.1407 321.0
77.4248 347.0
77.7089 348.0
77.993 356.0
78.2771 377.0
78.5612 380.0
78.8453 335.0
79.1294 335.0
79.4134 332.0
79.6975 332.0
79.9816 318.0
80.2657 270.0
80.5498 297.0
80.8339 262.0
81.118 271.0
81.4021 247.0
81.6862 276.0
81.9703 256.0
82.2544 255.0
82.5385 274.0
82.8225 275.0
83.1066 287.0
83.3907 241.0
83.6748 239.0
83.9589 205.0
84.243 227.0
84.5271 217.0
84.8112 235.0
85.0953 183.0
85.3794 217.0
85.6635 194.0
85.9476 214.0
86.2316 233.0
86.5157 206.0
86.7998 200.0
87.0839 214.0
87.368 206.0
87.6521 197.0
87.9362 213.0
88.2203 186.0
88.5044 178.0
88.7885 215.0
89.0726 183.0
89.3567 184.0
89.6407 201.0
89.9248 193.0
89.9415 191.0

File: 20240404_RUB-50_lessMat_calc700C.xy
4.98146 1313.0
5.26555 1257.0
5.54964 1144.0
5.83373 1039.0
6.11782 1073.0
6.40191 991.0
6.68601 959.0
6.9701 1088.0
7.25419 1518.0
7.53828 1376.0
7.82237 1204.0
8.10646 1423.0
8.39055 1440.0
8.67465 1318.0
8.95874 1292.0
9.24283 1252.0
9.52692 1215.0
9.81101 1255.0
10.0951 1166.0
10.3792 1032.0
10.6633 878.0
10.9474 664.0
11.2315 672.0
11.5156 606.0
11.7997 586.0
12.0837 627.0
12.3678 590.0
12.6519 589.0
12.936 709.0
13.2201 708.0
13.5042 621.0
13.7883 604.0
14.0724 667.0
14.3565 755.0
14.6406 1341.0
14.9247 1153.0
15.2088 909.0
15.4928 821.0
15.7769 768.0
16.061 810.0
16.3451 759.0
16.6292 691.0
16.9133 594.0
17.1974 570.0
17.4815 591.0
17.7656 528.0
18.0497 565.0
18.3338 601.0
18.6179 649.0
18.9019 683.0
19.186 706.0
19.4701 805.0
19.7542 855.0
20.0383 944.0
20.3224 1067.0
20.6065 950.0
20.8906 901.0
21.1747 881.0
21.4588 842.0
21.7429 1032.0
22.0269 1284.0
22.311 1487.0
22.5951 1610.0
22.8792 1848.0
23.1633 1782.0
23.4474 1546.0
23.7315 1388.0
24.0156 1298.0
24.2997 1103.0
24.5838 1041.0
24.8679 1009.0
25.152 1119.0
25.436 1462.0
25.7201 1401.0
26.0042 1393.0
26.2883 2034.0
26.5724 1985.0
26.8565 1570.0
27.1406 1453.0
27.4247 1274.0
27.7088 1164.0
27.9929 1117.0
28.277 1049.0
28.5611 984.0
28.8451 950.0
29.1292 882.0
29.4133 870.0
29.6974 747.0
29.9815 724.0
30.2656 692.0
30.5497 630.0
30.8338 555.0
31.1179 514.0
31.402 565.0
31.6861 561.0
31.9702 609.0
32.2542 646.0
32.5383 611.0
32.8224 595.0
33.1065 582.0
33.3906 621.0
33.6747 623.0
33.9588 638.0
34.2429 622.0
34.527 569.0
34.8111 574.0
35.0952 541.0
35.3793 531.0
35.6633 488.0
35.9474 423.0
36.2315 465.0
36.5156 439.0
36.7997 463.0
37.0838 444.0
37.3679 410.0
37.652 436.0
37.9361 513.0
38.2202 477.0
38.5043 519.0
38.7884 465.0
39.0724 394.0
39.3565 355.0
39.6406 355.0
39.9247 371.0
40.2088 369.0
40.4929 366.0
40.777 377.0
41.0611 379.0
41.3452 415.0
41.6293 367.0
41.9134 367.0
42.1975 354.0
42.4815 349.0
42.7656 356.0
43.0497 388.0
43.3338 382.0
43.6179 407.0
43.902 357.0
44.1861 360.0
44.4702 378.0
44.7543 379.0
45.0384 399.0
45.3225 427.0
45.6066 384.0
45.8906 394.0
46.1747 371.0
46.4588 442.0
46.7429 477.0
47.027 443.0
47.3111 381.0
47.5952 364.0
47.8793 336.0
48.1634 356.0
48.4475 389.0
48.7316 376.0
49.0156 396.0
49.2997 388.0
49.5838 410.0
49.8679 410.0
50.152 378.0
50.4361 364.0
50.7202 385.0
51.0043 387.0
51.2884 371.0
51.5725 383.0
51.8566 393.0
52.1407 403.0
52.4247 398.0
52.7088 413.0
52.9929 399.0
53.277 363.0
53.5611 369.0
53.8452 302.0
54.1293 339.0
54.4134 382.0
54.6975 332.0
54.9816 338.0
55.2657 331.0
55.5498 315.0
55.8338 334.0
56.1179 321.0
56.402 354.0
56.6861 357.0
56.9702 338.0
57.2543 326.0
57.5384 338.0
57.8225 298.0
58.1066 370.0
58.3907 311.0
58.6748 307.0
58.9589 328.0
59.2429 293.0
59.527 330.0
59.8111 321.0
60.0952 308.0
60.3793 332.0
60.6634 342.0
60.9475 349.0
61.2316 335.0
61.5157 338.0
61.7998 334.0
62.0839 403.0
62.368 353.0
62.652 350.0
62.9361 351.0
63.2202 348.0
63.5043 315.0
63.7884 322.0
64.0725 325.0
64.3566 336.0
64.6407 377.0
64.9248 369.0
65.2089 417.0
65.493 354.0
65.7771 412.0
66.0611 409.0
66.3452 394.0
66.6293 399.0
66.9134 345.0
67.1975 375.0
67.4816 351.0
67.7657 337.0
68.0498 332.0
68.3339 338.0
68.618 328.0
68.9021 307.0
69.1862 323.0
69.4702 315.0
69.7543 303.0
70.0384 282.0
70.3225 310.0
70.6066 313.0
70.8907 328.0
71.1748 319.0
71.4589 323.0
71.743 303.0
72.0271 295.0
72.3112 299.0
72.5952 287.0
72.8793 276.0
73.1634 273.0
73.4475 288.0
73.7316 325.0
74.0157 317.0
74.2998 316.0
74.5839 297.0
74.868 303.0
75.1521 285.0
75.4362 261.0
75.7203 237.0
76.0043 282.0
76.2884 283.0
76.5725 273.0
76.8566 290.0
77.1407 286.0
77.4248 290.0
77.7089 271.0
77.993 284.0
78.2771 289.0
78.5612 292.0
78.8453 297.0
79.1294 287.0
79.4134 283.0
79.6975 300.0
79.9816 246.0
80.2657 299.0
80.5498 279.0
80.8339 231.0
81.118 232.0
81.4021 224.0
81.6862 233.0
81.9703 225.0
82.2544 231.0
82.5385 240.0
82.8225 228.0
83.1066 242.0
83.3907 199.0
83.6748 203.0
83.9589 192.0
84.243 198.0
84.5271 185.0
84.8112 172.0
85.0953 197.0
85.3794 207.0
85.6635 213.0
85.9476 207.0
86.2316 172.0
86.5157 181.0
86.7998 199.0
87.0839 193.0
87.368 154.0
87.6521 146.0
87.9362 184.0
88.2203 169.0
88.5044 177.0
88.7885 162.0
89.0726 152.0
89.3567 158.0
89.6407 175.0
89.9248 141.0
89.9415 173.0

File: 20240404_RUB-50_moreMat_calc600C.xy
4.98146 1246.0
5.26555 1162.0
5.54964 963.0
5.83373 994.0
6.11782 947.0
6.40191 920.0
6.68601 955.0
6.9701 996.0
7.25419 1464.0
7.53828 1122.0
7.82237 1131.0
8.10646 1118.0
8.39055 1089.0
8.67465 1136.0
8.95874 1045.0
9.24283 1079.0
9.52692 1000.0
9.81101 1015.0
10.0951 917.0
10.3792 873.0
10.6633 764.0
10.9474 623.0
11.2315 603.0
11.5156 598.0
11.7997 567.0
12.0837 510.0
12.3678 537.0
12.6519 585.0
12.936 690.0
13.2201 571.0
13.5042 520.0
13.7883 548.0
14.0724 599.0
14.3565 739.0
14.6406 1199.0
14.9247 857.0
15.2088 732.0
15.4928 663.0
15.7769 724.0
16.061 712.0
16.3451 643.0
16.6292 534.0
16.9133 543.0
17.1974 485.0
17.4815 466.0
17.7656 439.0
18.0497 504.0
18.3338 547.0
18.6179 521.0
18.9019 620.0
19.186 683.0
19.4701 685.0
19.7542 751.0
20.0383 803.0
20.3224 800.0
20.6065 788.0
20.8906 747.0
21.1747 699.0
21.4588 766.0
21.7429 869.0
22.0269 1113.0
22.311 1317.0
22.5951 1395.0
22.8792 1504.0
23.1633 1454.0
23.4474 1266.0
23.7315 1145.0
24.0156 1071.0
24.2997 954.0
24.5838 906.0
24.8679 853.0
25.152 1022.0
25.436 1227.0
25.7201 1095.0
26.0042 1288.0
26.2883 2031.0
26.5724 1574.0
26.8565 1230.0
27.1406 1265.0
27.4247 1156.0
27.7088 1032.0
27.9929 982.0
28.277 930.0
28.5611 859.0
28.8451 813.0
29.1292 713.0
29.4133 760.0
29.6974 679.0
29.9815 659.0
30.2656 650.0
30.5497 631.0
30.8338 628.0
31.1179 538.0
31.402 568.0
31.6861 565.0
31.9702 657.0
32.2542 594.0
32.5383 584.0
32.8224 623.0
33.1065 598.0
33.3906 685.0
33.6747 670.0
33.9588 657.0
34.2429 550.0
34.527 538.0
34.8111 553.0
35.0952 508.0
35.3793 544.0
35.6633 453.0
35.9474 460.0
36.2315 442.0
36.5156 462.0
36.7997 446.0
37.0838 440.0
37.3679 427.0
37.652 398.0
37.9361 442.0
38.2202 491.0
38.5043 417.0
38.7884 396.0
39.0724 391.0
39.3565 380.0
39.6406 371.0
39.9247 357.0
40.2088 330.0
40.4929 336.0
40.777 367.0
41.0611 389.0
41.3452 376.0
41.6293 362.0
41.9134 348.0
42.1975 334.0
42.4815 386.0
42.7656 368.0
43.0497 366.0
43.3338 358.0
43.6179 366.0
43.902 346.0
44.1861 371.0
44.4702 332.0
44.7543 407.0
45.0384 360.0
45.3225 403.0
45.6066 366.0
45.8906 341.0
46.1747 422.0
46.4588 424.0
46.7429 440.0
47.027 461.0
47.3111 428.0
47.5952 361.0
47.8793 368.0
48.1634 357.0
48.4475 367.0
48.7316 475.0
49.0156 396.0
49.2997 377.0
49.5838 439.0
49.8679 399.0
50.152 347.0
50.4361 424.0
50.7202 358.0
51.0043 342.0
51.2884 375.0
51.5725 366.0
51.8566 401.0
52.1407 408.0
52.4247 393.0
52.7088 381.0
52.9929 341.0
53.277 347.0
53.5611 350.0
53.8452 360.0
54.1293 344.0
54.4134 315.0
54.6975 342.0
54.9816 344.0
55.2657 323.0
55.5498 329.0
55.8338 347.0
56.1179 349.0
56.402 338.0
56.6861 360.0
56.9702 325.0
57.2543 339.0
57.5384 319.0
57.8225 353.0
58.1066 336.0
58.3907 294.0
58.6748 319.0
58.9589 318.0
59.2429 304.0
59.527 322.0
59.8111 324.0
60.0952 318.0
60.3793 369.0
60.6634 340.0
60.9475 381.0
61.2316 332.0
61.5157 300.0
61.7998 335.0
62.0839 340.0
62.368 353.0
62.652 329.0
62.9361 326.0
63.2202 363.0
63.5043 336.0
63.7884 311.0
64.0725 341.0
64.3566 348.0
64.6407 368.0
64.9248 340.0
65.2089 371.0
65.493 404.0
65.7771 397.0
66.0611 407.0
66.3452 418.0
66.6293 419.0
66.9134 379.0
67.1975 356.0
67.4816 326.0
67.7657 353.0
68.0498 366.0
68.3339 326.0
68.618 284.0
68.9021 358.0
69.1862 320.0
69.4702 317.0
69.7543 285.0
70.0384 318.0
70.3225 320.0
70.6066 318.0
70.8907 319.0
71.1748 332.0
71.4589 341.0
71.743 286.0
72.0271 291.0
72.3112 317.0
72.5952 321.0
72.8793 292.0
73.1634 302.0
73.4475 317.0
73.7316 307.0
74.0157 294.0
74.2998 272.0
74.5839 279.0
74.868 290.0
75.1521 258.0
75.4362 311.0
75.7203 313.0
76.0043 305.0
76.2884 299.0
76.5725 274.0
76.8566 280.0
77.1407 283.0
77.4248 248.0
77.7089 299.0
77.993 285.0
78.2771 280.0
78.5612 314.0
78.8453 255.0
79.1294 313.0
79.4134 298.0
79.6975 302.0
79.9816 301.0
80.2657 258.0
80.5498 240.0
80.8339 278.0
81.118 280.0
81.4021 286.0
81.6862 223.0
81.9703 231.0
82.2544 242.0
82.5385 233.0
82.8225 226.0
83.1066 236.0
83.3907 211.0
83.6748 209.0
83.9589 206.0
84.243 204.0
84.5271 204.0
84.8112 201.0
85.0953 197.0
85.3794 210.0
85.6635 197.0
85.9476 185.0
86.2316 177.0
86.5157 191.0
86.7998 170.0
87.0839 158.0
87.368 194.0
87.6521 176.0
87.9362 149.0
88.2203 177.0
88.5044 192.0
88.7885 189.0
89.0726 181.0
89.3567 165.0
89.6407 149.0
89.9248 163.0
89.9415 168.0