Folder: bachelor_thesis/code/XRD_Analysis/Zeolites/data_files/SAPO-14_SAPO-34_comp/calcined

Note: README.md
# bachelor_thesis
Hydrogensiation of CO2 to higher alcohols

File: 20241019_SAPO-14_SAPO-34_composite_Probe-1_calc.xy
4.98146 963.0
5.26555 932.0
5.54964 820.0
5.83373 789.0
6.11782 744.0
6.40191 717.0
6.68601 713.0
6.9701 682.0
7.25419 662.0
7.53828 645.0
7.82237 617.0
8.10646 618.0
8.39055 555.0
8.67465 705.0
8.95874 3586.0
9.24283 784.0
9.52692 3489.0
9.81101 642.0
10.0951 551.0
10.3792 535.0
10.6633 504.0
10.9474 647.0
11.2315 1168.0
11.5156 467.0
11.7997 616.0
12.0837 1576.0
12.3678 491.0
12.6519 501.0
12.936 1268.0
13.2201 4287.0
13.5042 643.0
13.7883 3687.0
14.0724 981.0
14.3565 613.0
14.6406 448.0
14.9247 434.0
15.2088 423.0
15.4928 507.0
15.7769 774.0
16.061 774.0
16.3451 841.0
16.6292 542.0
16.9133 455.0
17.1974 480.0
17.4815 555.0
17.7656 681.0
18.0497 3558.0
18.3338 1210.0
18.6179 600.0
18.9019 552.0
19.186 887.0
19.4701 586.0
19.7542 1225.0
20.0383 615.0
20.3224 643.0
20.6065 1947.0
20.8906 2579.0
21.1747 1417.0
21.4588 1271.0
21.7429 1192.0
22.0269 1667.0
22.311 1185.0
22.5951 1220.0
22.8792 1093.0
23.1633 917.0
23.4474 1464.0
23.7315 761.0
24.0156 824.0
24.2997 900.0
24.5838 696.0
24.8679 1152.0
25.152 1790.0
25.436 934.0
25.7201 863.0
26.0042 1031.0
26.2883 1275.0
26.5724 1763.0
26.8565 1281.0
27.1406 1230.0
27.4247 3614.0
27.7088 1559.0
27.9929 986.0
28.277 849.0
28.5611 918.0
28.8451 1013.0
29.1292 1399.0
29.4133 1434.0
29.6974 1349.0
29.9815 1590.0
30.2656 1631.0
30.5497 1004.0
30.8338 2069.0
31.1179 1905.0
31.402 1477.0
31.6861 882.0
31.9702 815.0
32.2542 1039.0
32.5383 744.0
32.8224 654.0
33.1065 1002.0
33.3906 656.0
33.6747 755.0
33.9588 623.0
34.2429 678.0
34.527 557.0
34.8111 616.0
35.0952 518.0
35.3793 737.0
35.6633 620.0
35.9474 620.0
36.2315 787.0
36.5156 709.0
36.7997 758.0
37.0838 547.0
37.3679 503.0
37.652 436.0
37.9361 410.0
38.2202 450.0
38.5043 466.0
38.7884 444.0
39.0724 409.0
39.3565 510.0
39.6406 406.0
39.9247 616.0
40.2088 580.0
40.4929 440.0
40.777 483.0
41.0611 373.0
41.3452 356.0
41.6293 413.0
41.9134 539.0
42.1975 400.0
42.4815 538.0
42.7656 384.0
43.0497 392.0
43.3338 440.0
43.6179 455.0
43.902 507.0
44.1861 460.0
44.4702 429.0
44.7543 470.0
45.0384 422.0
45.3225 403.0
45.6066 467.0
45.8906 391.0
46.1747 446.0
46.4588 451.0
46.7429 433.0
47.027 354.0
47.3111 395.0
47.5952 434.0
47.8793 453.0
48.1634 454.0
48.4475 430.0
48.7316 464.0
49.0156 491.0
49.2997 485.0
49.5838 509.0
49.8679 427.0
50.152 407.0
50.4361 383.0
50.7202 372.0
51.0043 518.0
51.2884 467.0
51.5725 424.0
51.8566 461.0
52.1407 360.0
52.4247 407.0
52.7088 366.0
52.9929 387.0
53.277 399.0
53.5611 415.0
53.8452 511.0
54.1293 417.0
54.4134 400.0
54.6975 398.0
54.9816 455.0
55.2657 470.0
55.5498 424.0
55.8338 482.0
56.1179 494.0
56.402 392.0
56.6861 433.0
56.9702 381.0
57.2543 393.0
57.5384 412.0
57.8225 416.0
58.1066 371.0
58.3907 328.0
58.6748 381.0
58.9589 341.0
59.2429 335.0
59.527 388.0
59.8111 345.0
60.0952 383.0
60.3793 398.0
60.6634 451.0
60.9475 375.0
61.2316 324.0
61.5157 333.0
61.7998 333.0
62.0839 365.0
62.368 282.0
62.652 345.0
62.9361 322.0
63.2202 291.0
63.5043 300.0
63.7884 345.0
64.0725 304.0
64.3566 279.0
64.6407 288.0
64.9248 334.0
65.2089 365.0
65.493 351.0
65.7771 375.0
66.0611 349.0
66.3452 345.0
66.6293 337.0
66.9134 338.0
67.1975 354.0
67.4816 430.0
67.7657 366.0
68.0498 314.0
68.3339 331.0
68.618 316.0
68.9021 300.0
69.1862 310.0
69.4702 310.0
69.7543 283.0
70.0384 325.0
70.3225 378.0
70.6066 357.0
70.8907 318.0
71.1748 330.0
71.4589 292.0
71.743 316.0
72.0271 325.0
72.3112 303.0
72.5952 299.0
72.8793 290.0
73.1634 279.0
73.4475 257.0
73.7316 275.0
74.0157 279.0
74.2998 268.0
74.5839 288.0
74.868 293.0
75.1521 280.0
75.4362 284.0
75.7203 302.0
76.0043 277.0
76.2884 285.0
76.5725 257.0
76.8566 235.0
77.1407 261.0
77.4248 284.0
77.7089 247.0
77.993 260.0
78.2771 254.0
78.5612 260.0
78.8453 238.0
79.1294 240.0
79.4134 233.0
79.6975 215.0
79.9816 235.0
80.2657 217.0
80.5498 210.0
80.8339 255.0
81.118 216.0
81.4021 220.0
81.6862 237.0
81.9703 229.0
82.2544 217.0
82.5385 179.0
82.8225 205.0
83.1066 178.0
83.3907 180.0
83.6748 212.0
83.9589 212.0
84.243 172.0
84.5271 190.0
84.8112 163.0
85.0953 183.0
85.3794 208.0
85.6635 196.0
85.9476 180.0
86.2316 179.0
86.5157 161.0
86.7998 194.0
87.0839 158.0
87.368 181.0
87.6521 168.0
87.9362 151.0
88.2203 163.0
88.5044 179.0
88.7885 159.0
89.0726 150.0
89.3567 160.0
89.6407 174.0
89.9248 150.0
89.9415 147.0

File: 20241019_SAPO-14_SAPO-34_composite_Probe-2_calc.xy
4.98146 987.0
5.26555 892.0
5.54964 815.0
5.83373 779.0
6.11782 759.0
6.40191 758.0
6.68601 716.0
6.9701 720.0
7.25419 701.0
7.53828 673.0
7.82237 660.0
8.10646 609.0
8.39055 646.0
8.67465 676.0
8.95874 5863.0
9.24283 706.0
9.52692 9117.0
9.81101 642.0
10.0951 556.0
10.3792 568.0
10.6633 565.0
10.9474 706.0
11.2315 1107.0
11.5156 520.0
11.7997 540.0
12.0837 1068.0
12.3678 504.0
12.6519 535.0
12.936 3071.0
13.2201 2339.0
13.5042 550.0
13.7883 1874.0
14.0724 1105.0
14.3565 487.0
14.6406 481.0
14.9247 524.0
15.2088 480.0
15.4928 524.0
15.7769 474.0
16.061 956.0
16.3451 735.0
16.6292 547.0
16.9133 529.0
17.1974 510.0
17.4815 584.0
17.7656 1049.0
18.0497 3745.0
18.3338 764.0
18.6179 566.0
18.9019 642.0
19.186 1134.0
19.4701 628.0
19.7542 1070.0
20.0383 766.0
20.3224 2691.0
20.6065 1494.0
20.8906 2328.0
21.1747 949.0
21.4588 3015.0
21.7429 1394.0
22.0269 1430.0
22.311 791.0
22.5951 1129.0
22.8792 1178.0
23.1633 1375.0
23.4474 1193.0
23.7315 854.0
24.0156 798.0
24.2997 949.0
24.5838 756.0
24.8679 1177.0
25.152 2490.0
25.436 908.0
25.7201 804.0
26.0042 1026.0
26.2883 1270.0
26.5724 1414.0
26.8565 946.0
27.1406 1456.0
27.4247 3649.0
27.7088 1326.0
27.9929 1118.0
28.277 1019.0
28.5611 857.0
28.8451 850.0
29.1292 1237.0
29.4133 961.0
29.6974 1878.0
29.9815 1150.0
30.2656 1145.0
30.5497 876.0
30.8338 2620.0
31.1179 1644.0
31.402 1705.0
31.6861 774.0
31.9702 892.0
32.2542 728.0
32.5383 767.0
32.8224 650.0
33.1065 738.0
33.3906 771.0
33.6747 792.0
33.9588 573.0
34.2429 599.0
34.527 511.0
34.8111 876.0
35.0952 470.0
35.3793 756.0
35.6633 814.0
35.9474 517.0
36.2315 809.0
36.5156 642.0
36.7997 606.0
37.0838 474.0
37.3679 456.0
37.652 400.0
37.9361 351.0
38.2202 381.0
38.5043 493.0
38.7884 448.0
39.0724 439.0
39.3565 431.0
39.6406 431.0
39.9247 510.0
40.2088 538.0
40.4929 415.0
40.777 399.0
41.0611 402.0
41.3452 389.0
41.6293 399.0
41.9134 502.0
42.1975 456.0
42.4815 506.0
42.7656 464.0
43.0497 395.0
43.3338 429.0
43.6179 396.0
43.902 512.0
44.1861 424.0
44.4702 396.0
44.7543 420.0
45.0384 392.0
45.3225 330.0
45.6066 451.0
45.8906 387.0
46.1747 424.0
46.4588 383.0
46.7429 423.0
47.027 379.0
47.3111 393.0
47.5952 414.0
47.8793 429.0
48.1634 488.0
48.4475 356.0
48.7316 498.0
49.0156 393.0
49.2997 570.0
49.5838 459.0
49.8679 393.0
50.152 397.0
50.4361 340.0
50.7202 344.0
51.0043 445.0
51.2884 466.0
51.5725 393.0
51.8566 382.0
52.1407 368.0
52.4247 369.0
52.7088 386.0
52.9929 409.0
53.277 376.0
53.5611 439.0
53.8452 531.0
54.1293 384.0
54.4134 389.0
54.6975 394.0
54.9816 423.0
55.2657 406.0
55.5498 446.0
55.8338 395.0
56.1179 492.0
56.402 341.0
56.6861 501.0
56.9702 414.0
57.2543 358.0
57.5384 353.0
57.8225 363.0
58.1066 348.0
58.3907 322.0
58.6748 325.0
58.9589 356.0
59.2429 324.0
59.527 357.0
59.8111 381.0
60.0952 353.0
60.3793 388.0
60.6634 330.0
60.9475 322.0
61.2316 333.0
61.5157 334.0
61.7998 357.0
62.0839 346.0
62.368 362.0
62.652 324.0
62.9361 308.0
63.2202 268.0
63.5043 319.0
63.7884 326.0
64.0725 360.0
64.3566 311.0
64.6407 342.0
64.9248 366.0
65.2089 336.0
65.493 348.0
65.7771 352.0
66.0611 392.0
66.3452 328.0
66.6293 329.0
66.9134 316.0
67.1975 372.0
67.4816 373.0
67.7657 345.0
68.0498 320.0
68.3339 300.0
68.618 333.0
68.9021 315.0
69.1862 325.0
69.4702 280.0
69.7543 316.0
70.0384 352.0
70.3225 342.0
70.6066 321.0
70.8907 310.0
71.1748 304.0
71.4589 279.0
71.743 329.0
72.0271 325.0
72.3112 273.0
72.5952 266.0
72.8793 268.0
73.1634 290.0
73.4475 275.0
73.7316 237.0
74.0157 286.0
74.2998 277.0
74.5839 269.0
74.868 274.0
75.1521 246.0
75.4362 254.0
75.7203 241.0
76.0043 301.0
76.2884 272.0
76.5725 254.0
76.8566 257.0
77.1407 257.0
77.4248 263.0
77.7089 270.0
77.993 268.0
78.2771 266.0
78.5612 261.0
78.8453 200.0
79.1294 253.0
79.4134 242.0
79.6975 211.0
79.9816 231.0
80.2657 209.0
80.5498 215.0
80.8339 225.0
81.118 206.0
81.4021 205.0
81.6862 188.0
81.9703 195.0
82.2544 185.0
82.5385 210.0
82.8225 193.0
83.1066 185.0
83.3907 211.0
83.6748 200.0
83.9589 186.0
84.243 173.0
84.5271 207.0
84.8112 181.0
85.0953 174.0
85.3794 168.0
85.6635 196.0
85.9476 175.0
86.2316 175.0
86.5157 164.0
86.7998 186.0
87.0839 164.0
87.368 157.0
87.6521 150.0
87.9362 160.0
88.2203 168.0
88.5044 161.0
88.7885 168.0
89.0726 179.0
89.3567 144.0
89.6407 157.0
89.9248 164.0
89.9415 148.0