Folder: bachelor_thesis/code/XRD_Analysis/20241023_XRD_Analsis

Note: README.md
# bachelor_thesis
Hydrogensiation of CO2 to higher alcohols

File: 20241023_ZnZrOx-SAPO-14-1_assynth_PID-20241011.xy
4.98146 1071.0
5.26555 901.0
5.54964 795.0
5.83373 820.0
6.11782 753.0
6.40191 781.0
6.68601 759.0
6.9701 675.0
7.25419 642.0
7.53828 695.0
7.82237 634.0
8.10646 674.0
8.39055 839.0
8.67465 2734.0
8.95874 1156.0
9.24283 737.0
9.52692 912.0
9.81101 552.0
10.0951 487.0
10.3792 516.0
10.6633 511.0
10.9474 786.0
11.2315 690.0
11.5156 535.0
11.7997 513.0
12.0837 404.0
12.3678 411.0
12.6519 445.0
12.936 932.0
13.2201 2056.0
13.5042 842.0
13.7883 526.0
14.0724 496.0
14.3565 554.0
14.6406 422.0
14.9247 396.0
15.2088 391.0
15.4928 402.0
15.7769 708.0
16.061 878.0
16.3451 418.0
16.6292 388.0
16.9133 393.0
17.1974 509.0
17.4815 657.0
17.7656 642.0
18.0497 586.0
18.3338 525.0
18.6179 503.0
18.9019 532.0
19.186 482.0
19.4701 474.0
19.7542 566.0
20.0383 432.0
20.3224 442.0
20.6065 600.0
20.8906 730.0
21.1747 870.0
21.4588 1154.0
21.7429 1376.0
22.0269 1862.0
22.311 1312.0
22.5951 824.0
22.8792 616.0
23.1633 605.0
23.4474 547.0
23.7315 539.0
24.0156 549.0
24.2997 799.0
24.5838 581.0
24.8679 620.0
25.152 758.0
25.436 879.0
25.7201 859.0
26.0042 756.0
26.2883 748.0
26.5724 897.0
26.8565 1044.0
27.1406 869.0
27.4247 704.0
27.7088 741.0
27.9929 862.0
28.277 792.0
28.5611 816.0
28.8451 1111.0
29.1292 1391.0
29.4133 1513.0
29.6974 1799.0
29.9815 2179.0
30.2656 4020.0
30.5497 5921.0
30.8338 1863.0
31.1179 1084.0
31.402 873.0
31.6861 804.0
31.9702 829.0
32.2542 949.0
32.5383 975.0
32.8224 735.0
33.1065 667.0
33.3906 604.0
33.6747 691.0
33.9588 618.0
34.2429 595.0
34.527 632.0
34.8111 670.0
35.0952 966.0
35.3793 1552.0
35.6633 691.0
35.9474 535.0
36.2315 460.0
36.5156 432.0
36.7997 394.0
37.0838 394.0
37.3679 397.0
37.652 388.0
37.9361 367.0
38.2202 434.0
38.5043 314.0
38.7884 321.0
39.0724 328.0
39.3565 339.0
39.6406 361.0
39.9247 351.0
40.2088 291.0
40.4929 349.0
40.777 352.0
41.0611 323.0
41.3452 338.0
41.6293 361.0
41.9134 328.0
42.1975 356.0
42.4815 353.0
42.7656 367.0
43.0497 347.0
43.3338 352.0
43.6179 385.0
43.902 361.0
44.1861 375.0
44.4702 347.0
44.7543 378.0
45.0384 334.0
45.3225 308.0
45.6066 349.0
45.8906 358.0
46.1747 370.0
46.4588 369.0
46.7429 340.0
47.027 375.0
47.3111 352.0
47.5952 354.0
47.8793 391.0
48.1634 396.0
48.4475 384.0
48.7316 430.0
49.0156 429.0
49.2997 507.0
49.5838 512.0
49.8679 641.0
50.152 711.0
50.4361 1100.0
50.7202 2090.0
51.0043 1805.0
51.2884 854.0
51.5725 611.0
51.8566 538.0
52.1407 467.0
52.4247 442.0
52.7088 441.0
52.9929 358.0
53.277 396.0
53.5611 353.0
53.8452 368.0
54.1293 387.0
54.4134 345.0
54.6975 350.0
54.9816 345.0
55.2657 375.0
55.5498 364.0
55.8338 337.0
56.1179 376.0
56.402 353.0
56.6861 358.0
56.9702 376.0
57.2543 361.0
57.5384 348.0
57.8225 398.0
58.1066 392.0
58.3907 400.0
58.6748 416.0
58.9589 457.0
59.2429 460.0
59.527 513.0
59.8111 603.0
60.0952 919.0
60.3793 1388.0
60.6634 1154.0
60.9475 694.0
61.2316 508.0
61.5157 442.0
61.7998 393.0
62.0839 344.0
62.368 310.0
62.652 385.0
62.9361 377.0
63.2202 434.0
63.5043 486.0
63.7884 407.0
64.0725 324.0
64.3566 331.0
64.6407 315.0
64.9248 287.0
65.2089 300.0
65.493 286.0
65.7771 302.0
66.0611 272.0
66.3452 270.0
66.6293 277.0
66.9134 287.0
67.1975 269.0
67.4816 279.0
67.7657 270.0
68.0498 290.0
68.3339 275.0
68.618 283.0
68.9021 260.0
69.1862 275.0
69.4702 297.0
69.7543 292.0
70.0384 262.0
70.3225 257.0
70.6066 246.0
70.8907 264.0
71.1748 271.0
71.4589 267.0
71.743 282.0
72.0271 250.0
72.3112 262.0
72.5952 268.0
72.8793 266.0
73.1634 259.0
73.4475 270.0
73.7316 288.0
74.0157 303.0
74.2998 299.0
74.5839 357.0
74.868 392.0
75.1521 328.0
75.4362 268.0
75.7203 229.0
76.0043 222.0
76.2884 233.0
76.5725 230.0
76.8566 236.0
77.1407 223.0
77.4248 213.0
77.7089 237.0
77.993 228.0
78.2771 210.0
78.5612 221.0
78.8453 204.0
79.1294 201.0
79.4134 214.0
79.6975 207.0
79.9816 225.0
80.2657 243.0
80.5498 251.0
80.8339 235.0
81.118 225.0
81.4021 233.0
81.6862 257.0
81.9703 288.0
82.2544 297.0
82.5385 346.0
82.8225 413.0
83.1066 404.0
83.3907 306.0
83.6748 257.0
83.9589 229.0
84.243 241.0
84.5271 252.0
84.8112 247.0
85.0953 286.0
85.3794 311.0
85.6635 278.0
85.9476 257.0
86.2316 217.0
86.5157 198.0
86.7998 186.0
87.0839 176.0
87.368 184.0
87.6521 168.0
87.9362 167.0
88.2203 169.0
88.5044 179.0
88.7885 180.0
89.0726 153.0
89.3567 153.0
89.6407 169.0
89.9248 167.0
89.9415 152.0

File: 20241023_ZnZrOx_20241016_calc.xy
4.98146 1005.0
5.26555 882.0
5.54964 870.0
5.83373 820.0
6.11782 778.0
6.40191 747.0
6.68601 694.0
6.9701 638.0
7.25419 597.0
7.53828 623.0
7.82237 600.0
8.10646 578.0
8.39055 552.0
8.67465 558.0
8.95874 500.0
9.24283 457.0
9.52692 507.0
9.81101 455.0
10.0951 453.0
10.3792 426.0
10.6633 446.0
10.9474 375.0
11.2315 406.0
11.5156 389.0
11.7997 400.0
12.0837 360.0
12.3678 328.0
12.6519 369.0
12.936 349.0
13.2201 295.0
13.5042 263.0
13.7883 340.0
14.0724 308.0
14.3565 277.0
14.6406 266.0
14.9247 283.0
15.2088 284.0
15.4928 269.0
15.7769 235.0
16.061 250.0
16.3451 262.0
16.6292 248.0
16.9133 252.0
17.1974 253.0
17.4815 231.0
17.7656 235.0
18.0497 227.0
18.3338 212.0
18.6179 221.0
18.9019 206.0
19.186 205.0
19.4701 214.0
19.7542 199.0
20.0383 226.0
20.3224 220.0
20.6065 197.0
20.8906 227.0
21.1747 203.0
21.4588 189.0
21.7429 222.0
22.0269 196.0
22.311 226.0
22.5951 205.0
22.8792 211.0
23.1633 214.0
23.4474 193.0
23.7315 217.0
24.0156 253.0
24.2997 213.0
24.5838 222.0
24.8679 219.0
25.152 225.0
25.436 241.0
25.7201 199.0
26.0042 227.0
26.2883 230.0
26.5724 252.0
26.8565 250.0
27.1406 284.0
27.4247 299.0
27.7088 279.0
27.9929 292.0
28.277 381.0
28.5611 388.0
28.8451 526.0
29.1292 707.0
29.4133 957.0
29.6974 1366.0
29.9815 2137.0
30.2656 5494.0
30.5497 18561.0
30.8338 3682.0
31.1179 1416.0
31.402 867.0
31.6861 613.0
31.9702 451.0
32.2542 344.0
32.5383 333.0
32.8224 321.0
33.1065 308.0
33.3906 279.0
33.6747 299.0
33.9588 322.0
34.2429 395.0
34.527 507.0
34.8111 643.0
35.0952 1152.0
35.3793 4412.0
35.6633 1035.0
35.9474 383.0
36.2315 306.0
36.5156 253.0
36.7997 185.0
37.0838 192.0
37.3679 182.0
37.652 189.0
37.9361 182.0
38.2202 168.0
38.5043 161.0
38.7884 146.0
39.0724 184.0
39.3565 158.0
39.6406 132.0
39.9247 166.0
40.2088 175.0
40.4929 159.0
40.777 173.0
41.0611 179.0
41.3452 160.0
41.6293 203.0
41.9134 174.0
42.1975 198.0
42.4815 168.0
42.7656 186.0
43.0497 199.0
43.3338 196.0
43.6179 206.0
43.902 200.0
44.1861 173.0
44.4702 198.0
44.7543 173.0
45.0384 213.0
45.3225 198.0
45.6066 246.0
45.8906 214.0
46.1747 235.0
46.4588 231.0
46.7429 212.0
47.027 244.0
47.3111 239.0
47.5952 251.0
47.8793 268.0
48.1634 288.0
48.4475 329.0
48.7316 395.0
49.0156 430.0
49.2997 487.0
49.5838 636.0
49.8679 838.0
50.152 1075.0
50.4361 1769.0
50.7202 4066.0
51.0043 6017.0
51.2884 2001.0
51.5725 869.0
51.8566 555.0
52.1407 411.0
52.4247 326.0
52.7088 303.0
52.9929 264.0
53.277 240.0
53.5611 262.0
53.8452 237.0
54.1293 215.0
54.4134 211.0
54.6975 196.0
54.9816 217.0
55.2657 232.0
55.5498 246.0
55.8338 223.0
56.1179 242.0
56.402 238.0
56.6861 256.0
56.9702 266.0
57.2543 275.0
57.5384 250.0
57.8225 287.0
58.1066 323.0
58.3907 320.0
58.6748 414.0
58.9589 457.0
59.2429 576.0
59.527 622.0
59.8111 949.0
60.0952 1423.0
60.3793 3274.0
60.6634 3574.0
60.9475 1437.0
61.2316 657.0
61.5157 442.0
61.7998 369.0
62.0839 344.0
62.368 342.0
62.652 332.0
62.9361 392.0
63.2202 511.0
63.5043 740.0
63.7884 606.0
64.0725 350.0
64.3566 251.0
64.6407 240.0
64.9248 200.0
65.2089 181.0
65.493 188.0
65.7771 158.0
66.0611 144.0
66.3452 184.0
66.6293 169.0
66.9134 155.0
67.1975 169.0
67.4816 157.0
67.7657 154.0
68.0498 145.0
68.3339 134.0
68.618 130.0
68.9021 139.0
69.1862 143.0
69.4702 133.0
69.7543 145.0
70.0384 115.0
70.3225 146.0
70.6066 129.0
70.8907 147.0
71.1748 118.0
71.4589 133.0
71.743 149.0
72.0271 151.0
72.3112 168.0
72.5952 146.0
72.8793 143.0
73.1634 146.0
73.4475 201.0
73.7316 194.0
74.0157 246.0
74.2998 300.0
74.5839 438.0
74.868 673.0
75.1521 474.0
75.4362 240.0
75.7203 179.0
76.0043 169.0
76.2884 163.0
76.5725 130.0
76.8566 143.0
77.1407 157.0
77.4248 144.0
77.7089 144.0
77.993 107.0
78.2771 149.0
78.5612 126.0
78.8453 137.0
79.1294 161.0
79.4134 169.0
79.6975 134.0
79.9816 176.0
80.2657 172.0
80.5498 186.0
80.8339 194.0
81.118 230.0
81.4021 237.0
81.6862 287.0
81.9703 340.0
82.2544 460.0
82.5385 617.0
82.8225 844.0
83.1066 856.0
83.3907 559.0
83.6748 404.0
83.9589 284.0
84.243 299.0
84.5271 290.0
84.8112 331.0
85.0953 425.0
85.3794 583.0
85.6635 690.0
85.9476 477.0
86.2316 302.0
86.5157 216.0
86.7998 186.0
87.0839 164.0
87.368 162.0
87.6521 159.0
87.9362 155.0
88.2203 157.0
88.5044 157.0
88.7885 152.0
89.0726 142.0
89.3567 141.0
89.6407 148.0
89.9248 152.0
89.9415 151.0