Folder: bachelor_thesis/code/XRD_Analysis/External Sources/Fabian/SAPO-18

Note: README.md
# bachelor_thesis
Hydrogensiation of CO2 to higher alcohols

File: 5-90_step0_016_1h_20240108_SAPO-18_anderer_sample_holder_fein.xy
4.98146 1759.0
5.26555 1590.0
5.54964 1435.0
5.83373 1404.0
6.11782 1213.0
6.40191 1123.0
6.68601 1093.0
6.9701 1106.0
7.25419 1069.0
7.53828 966.0
7.82237 951.0
8.10646 904.0
8.39055 934.0
8.67465 940.0
8.95874 1064.0
9.24283 1831.0
9.52692 12416.0
9.81101 1457.0
10.0951 964.0
10.3792 1255.0
10.6633 1601.0
10.9474 1306.0
11.2315 775.0
11.5156 685.0
11.7997 684.0
12.0837 730.0
12.3678 675.0
12.6519 824.0
12.936 1262.0
13.2201 763.0
13.5042 644.0
13.7883 763.0
14.0724 1425.0
14.3565 772.0
14.6406 1004.0
14.9247 1089.0
15.2088 836.0
15.4928 1328.0
15.7769 2753.0
16.061 3115.0
16.3451 1570.0
16.6292 2374.0
16.9133 8506.0
17.1974 4127.0
17.4815 1671.0
17.7656 1479.0
18.0497 847.0
18.3338 719.0
18.6179 682.0
18.9019 863.0
19.186 1351.0
19.4701 1721.0
19.7542 1850.0
20.0383 3395.0
20.3224 2116.0
20.6065 3954.0
20.8906 3417.0
21.1747 3240.0
21.4588 2109.0
21.7429 1638.0
22.0269 1706.0
22.311 891.0
22.5951 1075.0
22.8792 815.0
23.1633 856.0
23.4474 1230.0
23.7315 2189.0
24.0156 2752.0
24.2997 1799.0
24.5838 1323.0
24.8679 1075.0
25.152 979.0
25.436 1094.0
25.7201 1666.0
26.0042 1634.0
26.2883 3100.0
26.5724 1596.0
26.8565 1289.0
27.1406 833.0
27.4247 1060.0
27.7088 1765.0
27.9929 1964.0
28.277 1104.0
28.5611 783.0
28.8451 759.0
29.1292 1089.0
29.4133 1066.0
29.6974 1260.0
29.9815 1715.0
30.2656 2230.0
30.5497 1722.0
30.8338 2523.0
31.1179 2730.0
31.402 1385.0
31.6861 1478.0
31.9702 1736.0
32.2542 2142.0
32.5383 2043.0
32.8224 1360.0
33.1065 965.0
33.3906 901.0
33.6747 683.0
33.9588 580.0
34.2429 674.0
34.527 808.0
34.8111 679.0
35.0952 572.0
35.3793 490.0
35.6633 493.0
35.9474 691.0
36.2315 841.0
36.5156 668.0
36.7997 506.0
37.0838 476.0
37.3679 464.0
37.652 461.0
37.9361 475.0
38.2202 492.0
38.5043 490.0
38.7884 590.0
39.0724 629.0
39.3565 679.0
39.6406 558.0
39.9247 567.0
40.2088 620.0
40.4929 495.0
40.777 520.0
41.0611 584.0
41.3452 673.0
41.6293 659.0
41.9134 572.0
42.1975 418.0
42.4815 489.0
42.7656 597.0
43.0497 810.0
43.3338 742.0
43.6179 555.0
43.902 555.0
44.1861 599.0
44.4702 502.0
44.7543 502.0
45.0384 465.0
45.3225 429.0
45.6066 466.0
45.8906 479.0
46.1747 445.0
46.4588 449.0
46.7429 455.0
47.027 445.0
47.3111 417.0
47.5952 506.0
47.8793 482.0
48.1634 584.0
48.4475 571.0
48.7316 918.0
49.0156 1123.0
49.2997 922.0
49.5838 820.0
49.8679 863.0
50.152 852.0
50.4361 690.0
50.7202 754.0
51.0043 847.0
51.2884 767.0
51.5725 600.0
51.8566 567.0
52.1407 601.0
52.4247 594.0
52.7088 595.0
52.9929 540.0
53.277 563.0
53.5611 479.0
53.8452 507.0
54.1293 586.0
54.4134 575.0
54.6975 697.0
54.9816 678.0
55.2657 793.0
55.5498 696.0
55.8338 682.0
56.1179 560.0
56.402 492.0
56.6861 431.0
56.9702 479.0
57.2543 412.0
57.5384 424.0
57.8225 393.0
58.1066 401.0
58.3907 473.0
58.6748 463.0
58.9589 495.0
59.2429 551.0
59.527 547.0
59.8111 501.0
60.0952 582.0
60.3793 526.0
60.6634 535.0
60.9475 485.0
61.2316 492.0
61.5157 495.0
61.7998 447.0
62.0839 491.0
62.368 487.0
62.652 477.0
62.9361 495.0
63.2202 486.0
63.5043 477.0
63.7884 503.0
64.0725 492.0
64.3566 469.0
64.6407 418.0
64.9248 441.0
65.2089 433.0
65.493 494.0
65.7771 494.0
66.0611 540.0
66.3452 650.0
66.6293 748.0
66.9134 689.0
67.1975 575.0
67.4816 537.0
67.7657 543.0
68.0498 470.0
68.3339 462.0
68.618 490.0
68.9021 442.0
69.1862 492.0
69.4702 529.0
69.7543 720.0
70.0384 728.0
70.3225 576.0
70.6066 524.0
70.8907 505.0
71.1748 505.0
71.4589 526.0
71.743 503.0
72.0271 545.0
72.3112 542.0
72.5952 578.0
72.8793 558.0
73.1634 533.0
73.4475 500.0
73.7316 483.0
74.0157 445.0
74.2998 425.0
74.5839 440.0
74.868 462.0
75.1521 443.0
75.4362 408.0
75.7203 438.0
76.0043 428.0
76.2884 426.0
76.5725 382.0
76.8566 416.0
77.1407 441.0
77.4248 410.0
77.7089 423.0
77.993 351.0
78.2771 389.0
78.5612 370.0
78.8453 381.0
79.1294 395.0
79.4134 400.0
79.6975 392.0
79.9816 384.0
80.2657 384.0
80.5498 439.0
80.8339 441.0
81.118 404.0
81.4021 371.0
81.6862 376.0
81.9703 354.0
82.2544 355.0
82.5385 338.0
82.8225 397.0
83.1066 386.0
83.3907 331.0
83.6748 337.0
83.9589 313.0
84.243 333.0
84.5271 323.0
84.8112 288.0
85.0953 328.0
85.3794 337.0
85.6635 276.0
85.9476 304.0
86.2316 278.0
86.5157 301.0
86.7998 260.0
87.0839 302.0
87.368 268.0
87.6521 272.0
87.9362 259.0
88.2203 315.0
88.5044 256.0
88.7885 292.0
89.0726 271.0
89.3567 261.0
89.6407 243.0
89.9248 235.0
89.9415 232.0

File: 5-90_step0_016_1h_20240108_SAPO-18_zero_BG_holder_fein.xy
4.98146 1308.0
5.26555 1244.0
5.54964 1080.0
5.83373 1054.0
6.11782 916.0
6.40191 913.0
6.68601 837.0
6.9701 806.0
7.25419 771.0
7.53828 755.0
7.82237 729.0
8.10646 711.0
8.39055 759.0
8.67465 684.0
8.95874 745.0
9.24283 904.0
9.52692 3434.0
9.81101 3644.0
10.0951 790.0
10.3792 743.0
10.6633 1401.0
10.9474 1024.0
11.2315 771.0
11.5156 550.0
11.7997 581.0
12.0837 554.0
12.3678 496.0
12.6519 570.0
12.936 834.0
13.2201 766.0
13.5042 524.0
13.7883 492.0
14.0724 957.0
14.3565 609.0
14.6406 597.0
14.9247 1157.0
15.2088 693.0
15.4928 751.0
15.7769 1921.0
16.061 2642.0
16.3451 1397.0
16.6292 1312.0
16.9133 3442.0
17.1974 6336.0
17.4815 1980.0
17.7656 1230.0
18.0497 857.0
18.3338 612.0
18.6179 529.0
18.9019 605.0
19.186 1015.0
19.4701 998.0
19.7542 2114.0
20.0383 1977.0
20.3224 2430.0
20.6065 2762.0
20.8906 2902.0
21.1747 2617.0
21.4588 2604.0
21.7429 1369.0
22.0269 1434.0
22.311 953.0
22.5951 862.0
22.8792 730.0
23.1633 739.0
23.4474 758.0
23.7315 1391.0
24.0156 2389.0
24.2997 1740.0
24.5838 1381.0
24.8679 1051.0
25.152 821.0
25.436 895.0
25.7201 1235.0
26.0042 1512.0
26.2883 2229.0
26.5724 2060.0
26.8565 1350.0
27.1406 872.0
27.4247 759.0
27.7088 1132.0
27.9929 1815.0
28.277 1276.0
28.5611 736.0
28.8451 689.0
29.1292 759.0
29.4133 930.0
29.6974 1039.0
29.9815 1371.0
30.2656 1854.0
30.5497 1852.0
30.8338 1721.0
31.1179 2711.0
31.402 1778.0
31.6861 1230.0
31.9702 1513.0
32.2542 1855.0
32.5383 1911.0
32.8224 1465.0
33.1065 1012.0
33.3906 828.0
33.6747 719.0
33.9588 531.0
34.2429 584.0
34.527 674.0
34.8111 648.0
35.0952 532.0
35.3793 514.0
35.6633 422.0
35.9474 543.0
36.2315 784.0
36.5156 720.0
36.7997 504.0
37.0838 420.0
37.3679 385.0
37.652 387.0
37.9361 403.0
38.2202 395.0
38.5043 441.0
38.7884 478.0
39.0724 613.0
39.3565 589.0
39.6406 534.0
39.9247 508.0
40.2088 544.0
40.4929 536.0
40.777 486.0
41.0611 475.0
41.3452 528.0
41.6293 626.0
41.9134 539.0
42.1975 416.0
42.4815 385.0
42.7656 480.0
43.0497 599.0
43.3338 723.0
43.6179 538.0
43.902 533.0
44.1861 549.0
44.4702 521.0
44.7543 464.0
45.0384 427.0
45.3225 363.0
45.6066 424.0
45.8906 399.0
46.1747 367.0
46.4588 400.0
46.7429 383.0
47.027 369.0
47.3111 339.0
47.5952 349.0
47.8793 460.0
48.1634 498.0
48.4475 497.0
48.7316 611.0
49.0156 957.0
49.2997 873.0
49.5838 677.0
49.8679 734.0
50.152 788.0
50.4361 627.0
50.7202 610.0
51.0043 768.0
51.2884 666.0
51.5725 584.0
51.8566 478.0
52.1407 512.0
52.4247 542.0
52.7088 500.0
52.9929 491.0
53.277 479.0
53.5611 434.0
53.8452 389.0
54.1293 382.0
54.4134 529.0
54.6975 541.0
54.9816 583.0
55.2657 676.0
55.5498 616.0
55.8338 548.0
56.1179 554.0
56.402 436.0
56.6861 363.0
56.9702 398.0
57.2543 427.0
57.5384 352.0
57.8225 338.0
58.1066 388.0
58.3907 373.0
58.6748 398.0
58.9589 385.0
59.2429 486.0
59.527 489.0
59.8111 531.0
60.0952 496.0
60.3793 545.0
60.6634 457.0
60.9475 420.0
61.2316 380.0
61.5157 431.0
61.7998 417.0
62.0839 433.0
62.368 417.0
62.652 419.0
62.9361 438.0
63.2202 436.0
63.5043 441.0
63.7884 407.0
64.0725 420.0
64.3566 365.0
64.6407 416.0
64.9248 373.0
65.2089 400.0
65.493 449.0
65.7771 398.0
66.0611 440.0
66.3452 462.0
66.6293 617.0
66.9134 590.0
67.1975 457.0
67.4816 453.0
67.7657 456.0
68.0498 455.0
68.3339 415.0
68.618 387.0
68.9021 372.0
69.1862 386.0
69.4702 438.0
69.7543 520.0
70.0384 598.0
70.3225 542.0
70.6066 483.0
70.8907 411.0
71.1748 403.0
71.4589 394.0
71.743 448.0
72.0271 438.0
72.3112 444.0
72.5952 470.0
72.8793 425.0
73.1634 449.0
73.4475 411.0
73.7316 427.0
74.0157 381.0
74.2998 353.0
74.5839 342.0
74.868 362.0
75.1521 364.0
75.4362 373.0
75.7203 315.0
76.0043 364.0
76.2884 332.0
76.5725 332.0
76.8566 333.0
77.1407 331.0
77.4248 353.0
77.7089 333.0
77.993 329.0
78.2771 320.0
78.5612 320.0
78.8453 310.0
79.1294 276.0
79.4134 267.0
79.6975 323.0
79.9816 316.0
80.2657 294.0
80.5498 293.0
80.8339 300.0
81.118 338.0
81.4021 321.0
81.6862 305.0
81.9703 302.0
82.2544 266.0
82.5385 293.0
82.8225 273.0
83.1066 302.0
83.3907 260.0
83.6748 283.0
83.9589 297.0
84.243 289.0
84.5271 264.0
84.8112 250.0
85.0953 242.0
85.3794 264.0
85.6635 231.0
85.9476 227.0
86.2316 240.0
86.5157 230.0
86.7998 219.0
87.0839 222.0
87.368 270.0
87.6521 256.0
87.9362 221.0
88.2203 200.0
88.5044 247.0
88.7885 214.0
89.0726 242.0
89.3567 212.0
89.6407 190.0
89.9248 221.0
89.9415 183.0

File: 5-90_step0_016_1h_20240108_SAPO-18_zero_BG_holder_grob.xy
4.98146 888.0
5.26555 719.0
5.54964 727.0
5.83373 726.0
6.11782 646.0
6.40191 570.0
6.68601 612.0
6.9701 585.0
7.25419 518.0
7.53828 533.0
7.82237 492.0
8.10646 478.0
8.39055 466.0
8.67465 425.0
8.95874 413.0
9.24283 454.0
9.52692 662.0
9.81101 1326.0
10.0951 1398.0
10.3792 407.0
10.6633 425.0
10.9474 539.0
11.2315 539.0
11.5156 358.0
11.7997 302.0
12.0837 342.0
12.3678 280.0
12.6519 268.0
12.936 285.0
13.2201 339.0
13.5042 342.0
13.7883 280.0
14.0724 287.0
14.3565 354.0
14.6406 303.0
14.9247 306.0
15.2088 370.0
15.4928 307.0
15.7769 360.0
16.061 700.0
16.3451 816.0
16.6292 644.0
16.9133 689.0
17.1974 1360.0
17.4815 1534.0
17.7656 751.0
18.0497 509.0
18.3338 367.0
18.6179 252.0
18.9019 258.0
19.186 258.0
19.4701 391.0
19.7542 501.0
20.0383 633.0
20.3224 791.0
20.6065 923.0
20.8906 1020.0
21.1747 1041.0
21.4588 1031.0
21.7429 859.0
22.0269 574.0
22.311 522.0
22.5951 391.0
22.8792 384.0
23.1633 308.0
23.4474 333.0
23.7315 444.0
24.0156 673.0
24.2997 951.0
24.5838 732.0
24.8679 522.0
25.152 446.0
25.436 389.0
25.7201 431.0
26.0042 648.0
26.2883 783.0
26.5724 991.0
26.8565 779.0
27.1406 612.0
27.4247 412.0
27.7088 435.0
27.9929 705.0
28.277 789.0
28.5611 594.0
28.8451 347.0
29.1292 347.0
29.4133 403.0
29.6974 448.0
29.9815 531.0
30.2656 810.0
30.5497 904.0
30.8338 881.0
31.1179 1111.0
31.402 1161.0
31.6861 739.0
31.9702 711.0
32.2542 868.0
32.5383 1027.0
32.8224 1052.0
33.1065 737.0
33.3906 505.0
33.6747 384.0
33.9588 340.0
34.2429 302.0
34.527 336.0
34.8111 355.0
35.0952 349.0
35.3793 309.0
35.6633 237.0
35.9474 280.0
36.2315 358.0
36.5156 376.0
36.7997 285.0
37.0838 273.0
37.3679 259.0
37.652 223.0
37.9361 208.0
38.2202 231.0
38.5043 217.0
38.7884 241.0
39.0724 287.0
39.3565 345.0
39.6406 346.0
39.9247 294.0
40.2088 297.0
40.4929 341.0
40.777 270.0
41.0611 284.0
41.3452 321.0
41.6293 337.0
41.9134 373.0
42.1975 272.0
42.4815 248.0
42.7656 236.0
43.0497 311.0
43.3338 431.0
43.6179 393.0
43.902 298.0
44.1861 326.0
44.4702 317.0
44.7543 288.0
45.0384 273.0
45.3225 230.0
45.6066 261.0
45.8906 269.0
46.1747 230.0
46.4588 256.0
46.7429 230.0
47.027 255.0
47.3111 247.0
47.5952 228.0
47.8793 230.0
48.1634 308.0
48.4475 334.0
48.7316 349.0
49.0156 514.0
49.2997 633.0
49.5838 525.0
49.8679 460.0
50.152 466.0
50.4361 472.0
50.7202 420.0
51.0043 451.0
51.2884 419.0
51.5725 411.0
51.8566 379.0
52.1407 309.0
52.4247 322.0
52.7088 316.0
52.9929 302.0
53.277 331.0
53.5611 309.0
53.8452 270.0
54.1293 314.0
54.4134 304.0
54.6975 354.0
54.9816 335.0
55.2657 435.0
55.5498 430.0
55.8338 449.0
56.1179 397.0
56.402 328.0
56.6861 311.0
56.9702 286.0
57.2543 282.0
57.5384 285.0
57.8225 271.0
58.1066 276.0
58.3907 256.0
58.6748 273.0
58.9589 275.0
59.2429 299.0
59.527 357.0
59.8111 354.0
60.0952 330.0
60.3793 318.0
60.6634 340.0
60.9475 316.0
61.2316 289.0
61.5157 317.0
61.7998 316.0
62.0839 313.0
62.368 319.0
62.652 345.0
62.9361 306.0
63.2202 311.0
63.5043 291.0
63.7884 358.0
64.0725 331.0
64.3566 311.0
64.6407 289.0
64.9248 299.0
65.2089 284.0
65.493 272.0
65.7771 279.0
66.0611 310.0
66.3452 325.0
66.6293 455.0
66.9134 423.0
67.1975 382.0
67.4816 360.0
67.7657 383.0
68.0498 342.0
68.3339 358.0
68.618 291.0
68.9021 306.0
69.1862 328.0
69.4702 348.0
69.7543 396.0
70.0384 465.0
70.3225 471.0
70.6066 393.0
70.8907 337.0
71.1748 308.0
71.4589 331.0
71.743 352.0
72.0271 335.0
72.3112 419.0
72.5952 389.0
72.8793 368.0
73.1634 410.0
73.4475 357.0
73.7316 365.0
74.0157 335.0
74.2998 297.0
74.5839 291.0
74.868 295.0
75.1521 308.0
75.4362 302.0
75.7203 269.0
76.0043 302.0
76.2884 322.0
76.5725 272.0
76.8566 305.0
77.1407 308.0
77.4248 342.0
77.7089 275.0
77.993 282.0
78.2771 285.0
78.5612 275.0
78.8453 260.0
79.1294 298.0
79.4134 235.0
79.6975 245.0
79.9816 290.0
80.2657 275.0
80.5498 216.0
80.8339 269.0
81.118 244.0
81.4021 287.0
81.6862 238.0
81.9703 247.0
82.2544 226.0
82.5385 241.0
82.8225 235.0
83.1066 244.0
83.3907 259.0
83.6748 220.0
83.9589 251.0
84.243 268.0
84.5271 229.0
84.8112 229.0
85.0953 203.0
85.3794 237.0
85.6635 211.0
85.9476 201.0
86.2316 184.0
86.5157 197.0
86.7998 207.0
87.0839 209.0
87.368 212.0
87.6521 198.0
87.9362 209.0
88.2203 223.0
88.5044 239.0
88.7885 170.0
89.0726 191.0
89.3567 203.0
89.6407 192.0
89.9248 179.0
89.9415 191.0

File: 25012024_SAPO-18_calc.xy
4.98146 1223.0
5.26555 1133.0
5.54964 1133.0
5.83373 1027.0
6.11782 1016.0
6.40191 883.0
6.68601 888.0
6.9701 852.0
7.25419 819.0
7.53828 805.0
7.82237 786.0
8.10646 783.0
8.39055 753.0
8.67465 781.0
8.95874 867.0
9.24283 1511.0
9.52692 6205.0
9.81101 2138.0
10.0951 925.0
10.3792 1109.0
10.6633 1707.0
10.9474 810.0
11.2315 636.0
11.5156 630.0
11.7997 643.0
12.0837 572.0
12.3678 632.0
12.6519 871.0
12.936 1569.0
13.2201 716.0
13.5042 904.0
13.7883 754.0
14.0724 598.0
14.3565 566.0
14.6406 565.0
14.9247 560.0
15.2088 576.0
15.4928 617.0
15.7769 700.0
16.061 1085.0
16.3451 925.0
16.6292 755.0
16.9133 1708.0
17.1974 1601.0
17.4815 1141.0
17.7656 819.0
18.0497 679.0
18.3338 660.0
18.6179 607.0
18.9019 735.0
19.186 844.0
19.4701 795.0
19.7542 886.0
20.0383 938.0
20.3224 1147.0
20.6065 1501.0
20.8906 1082.0
21.1747 1096.0
21.4588 1521.0
21.7429 923.0
22.0269 722.0
22.311 784.0
22.5951 926.0
22.8792 786.0
23.1633 948.0
23.4474 979.0
23.7315 1261.0
24.0156 2024.0
24.2997 1406.0
24.5838 937.0
24.8679 841.0
25.152 849.0
25.436 1089.0
25.7201 1110.0
26.0042 1385.0
26.2883 1429.0
26.5724 1292.0
26.8565 964.0
27.1406 892.0
27.4247 916.0
27.7088 1026.0
27.9929 1198.0
28.277 1192.0
28.5611 1072.0
28.8451 933.0
29.1292 840.0
29.4133 981.0
29.6974 1097.0
29.9815 1206.0
30.2656 1216.0
30.5497 1232.0
30.8338 1466.0
31.1179 1791.0
31.402 1613.0
31.6861 1174.0
31.9702 995.0
32.2542 1069.0
32.5383 1099.0
32.8224 1081.0
33.1065 1089.0
33.3906 855.0
33.6747 678.0
33.9588 654.0
34.2429 621.0
34.527 621.0
34.8111 578.0
35.0952 592.0
35.3793 610.0
35.6633 553.0
35.9474 563.0
36.2315 544.0
36.5156 532.0
36.7997 510.0
37.0838 485.0
37.3679 463.0
37.652 430.0
37.9361 420.0
38.2202 409.0
38.5043 425.0
38.7884 439.0
39.0724 440.0
39.3565 448.0
39.6406 402.0
39.9247 404.0
40.2088 440.0
40.4929 439.0
40.777 402.0
41.0611 435.0
41.3452 411.0
41.6293 442.0
41.9134 427.0
42.1975 432.0
42.4815 439.0
42.7656 409.0
43.0497 394.0
43.3338 427.0
43.6179 413.0
43.902 440.0
44.1861 386.0
44.4702 358.0
44.7543 425.0
45.0384 364.0
45.3225 363.0
45.6066 393.0
45.8906 429.0
46.1747 395.0
46.4588 383.0
46.7429 355.0
47.027 383.0
47.3111 385.0
47.5952 311.0
47.8793 388.0
48.1634 305.0
48.4475 370.0
48.7316 368.0
49.0156 413.0
49.2997 436.0
49.5838 414.0
49.8679 460.0
50.152 413.0
50.4361 428.0
50.7202 434.0
51.0043 435.0
51.2884 392.0
51.5725 400.0
51.8566 383.0
52.1407 340.0
52.4247 395.0
52.7088 413.0
52.9929 370.0
53.277 366.0
53.5611 386.0
53.8452 349.0
54.1293 366.0
54.4134 353.0
54.6975 322.0
54.9816 349.0
55.2657 379.0
55.5498 363.0
55.8338 368.0
56.1179 397.0
56.402 387.0
56.6861 369.0
56.9702 342.0
57.2543 300.0
57.5384 320.0
57.8225 338.0
58.1066 310.0
58.3907 306.0
58.6748 324.0
58.9589 336.0
59.2429 337.0
59.527 370.0
59.8111 322.0
60.0952 330.0
60.3793 328.0
60.6634 358.0
60.9475 368.0
61.2316 329.0
61.5157 319.0
61.7998 308.0
62.0839 293.0
62.368 278.0
62.652 315.0
62.9361 320.0
63.2202 288.0
63.5043 332.0
63.7884 282.0
64.0725 287.0
64.3566 303.0
64.6407 307.0
64.9248 310.0
65.2089 299.0
65.493 338.0
65.7771 261.0
66.0611 285.0
66.3452 326.0
66.6293 297.0
66.9134 322.0
67.1975 297.0
67.4816 291.0
67.7657 328.0
68.0498 337.0
68.3339 287.0
68.618 278.0
68.9021 304.0
69.1862 270.0
69.4702 273.0
69.7543 279.0
70.0384 299.0
70.3225 290.0
70.6066 261.0
70.8907 323.0
71.1748 294.0
71.4589 277.0
71.743 288.0
72.0271 255.0
72.3112 267.0
72.5952 271.0
72.8793 275.0
73.1634 306.0
73.4475 268.0
73.7316 277.0
74.0157 254.0
74.2998 235.0
74.5839 237.0
74.868 240.0
75.1521 247.0
75.4362 228.0
75.7203 248.0
76.0043 227.0
76.2884 263.0
76.5725 220.0
76.8566 214.0
77.1407 201.0
77.4248 248.0
77.7089 230.0
77.993 211.0
78.2771 224.0
78.5612 228.0
78.8453 227.0
79.1294 246.0
79.4134 207.0
79.6975 192.0
79.9816 203.0
80.2657 222.0
80.5498 197.0
80.8339 203.0
81.118 206.0
81.4021 183.0
81.6862 183.0
81.9703 191.0
82.2544 179.0
82.5385 201.0
82.8225 180.0
83.1066 191.0
83.3907 168.0
83.6748 177.0
83.9589 201.0
84.243 190.0
84.5271 174.0
84.8112 181.0
85.0953 167.0
85.3794 176.0
85.6635 178.0
85.9476 176.0
86.2316 142.0
86.5157 141.0
86.7998 152.0
87.0839 148.0
87.368 165.0
87.6521 167.0
87.9362 144.0
88.2203 153.0
88.5044 148.0
88.7885 150.0
89.0726 148.0
89.3567 165.0
89.6407 153.0
89.9248 146.0
89.9415 133.0