Folder: bachelor_thesis/code/XRD_Analysis/External Sources/Fabian/SAPO-34

Note: README.md
# bachelor_thesis
Hydrogensiation of CO2 to higher alcohols

File: 240412_SAPO-34_SiAl_045.xy
4.98146 1007.0
5.26555 974.0
5.54964 839.0
5.83373 857.0
6.11782 781.0
6.40191 743.0
6.68601 667.0
6.9701 704.0
7.25419 705.0
7.53828 633.0
7.82237 657.0
8.10646 617.0
8.39055 602.0
8.67465 616.0
8.95874 611.0
9.24283 644.0
9.52692 1742.0
9.81101 8526.0
10.0951 1303.0
10.3792 801.0
10.6633 770.0
10.9474 754.0
11.2315 595.0
11.5156 529.0
11.7997 480.0
12.0837 500.0
12.3678 512.0
12.6519 522.0
12.936 766.0
13.2201 2146.0
13.5042 760.0
13.7883 645.0
14.0724 569.0
14.3565 542.0
14.6406 478.0
14.9247 466.0
15.2088 478.0
15.4928 518.0
15.7769 701.0
16.061 734.0
16.3451 1588.0
16.6292 738.0
16.9133 965.0
17.1974 1055.0
17.4815 962.0
17.7656 816.0
18.0497 1078.0
18.3338 790.0
18.6179 706.0
18.9019 767.0
19.186 861.0
19.4701 1088.0
19.7542 934.0
20.0383 1019.0
20.3224 1087.0
20.6065 1111.0
20.8906 2961.0
21.1747 1999.0
21.4588 1284.0
21.7429 1110.0
22.0269 734.0
22.311 855.0
22.5951 879.0
22.8792 927.0
23.1633 922.0
23.4474 1370.0
23.7315 1090.0
24.0156 1309.0
24.2997 1425.0
24.5838 1241.0
24.8679 1100.0
25.152 1205.0
25.436 1394.0
25.7201 1192.0
26.0042 1287.0
26.2883 1992.0
26.5724 1663.0
26.8565 1290.0
27.1406 1138.0
27.4247 1006.0
27.7088 1043.0
27.9929 1137.0
28.277 1188.0
28.5611 1229.0
28.8451 1175.0
29.1292 1107.0
29.4133 1076.0
29.6974 1059.0
29.9815 1278.0
30.2656 1346.0
30.5497 1529.0
30.8338 1823.0
31.1179 2749.0
31.402 2558.0
31.6861 2002.0
31.9702 1593.0
32.2542 1402.0
32.5383 1269.0
32.8224 1286.0
33.1065 1210.0
33.3906 967.0
33.6747 899.0
33.9588 864.0
34.2429 822.0
34.527 824.0
34.8111 720.0
35.0952 834.0
35.3793 737.0
35.6633 633.0
35.9474 658.0
36.2315 602.0
36.5156 696.0
36.7997 580.0
37.0838 572.0
37.3679 491.0
37.652 489.0
37.9361 482.0
38.2202 537.0
38.5043 519.0
38.7884 466.0
39.0724 507.0
39.3565 478.0
39.6406 522.0
39.9247 571.0
40.2088 572.0
40.4929 557.0
40.777 508.0
41.0611 469.0
41.3452 528.0
41.6293 532.0
41.9134 528.0
42.1975 514.0
42.4815 526.0
42.7656 487.0
43.0497 502.0
43.3338 606.0
43.6179 564.0
43.902 552.0
44.1861 509.0
44.4702 498.0
44.7543 492.0
45.0384 537.0
45.3225 512.0
45.6066 449.0
45.8906 501.0
46.1747 459.0
46.4588 479.0
46.7429 509.0
47.027 502.0
47.3111 520.0
47.5952 506.0
47.8793 496.0
48.1634 553.0
48.4475 538.0
48.7316 451.0
49.0156 550.0
49.2997 667.0
49.5838 708.0
49.8679 688.0
50.152 642.0
50.4361 588.0
50.7202 602.0
51.0043 579.0
51.2884 625.0
51.5725 613.0
51.8566 628.0
52.1407 568.0
52.4247 569.0
52.7088 524.0
52.9929 539.0
53.277 545.0
53.5611 532.0
53.8452 560.0
54.1293 596.0
54.4134 539.0
54.6975 541.0
54.9816 581.0
55.2657 504.0
55.5498 551.0
55.8338 564.0
56.1179 528.0
56.402 509.0
56.6861 529.0
56.9702 461.0
57.2543 477.0
57.5384 483.0
57.8225 511.0
58.1066 431.0
58.3907 438.0
58.6748 416.0
58.9589 460.0
59.2429 488.0
59.527 451.0
59.8111 447.0
60.0952 465.0
60.3793 466.0
60.6634 538.0
60.9475 485.0
61.2316 522.0
61.5157 481.0
61.7998 450.0
62.0839 420.0
62.368 478.0
62.652 517.0
62.9361 445.0
63.2202 431.0
63.5043 396.0
63.7884 424.0
64.0725 462.0
64.3566 413.0
64.6407 460.0
64.9248 401.0
65.2089 434.0
65.493 458.0
65.7771 432.0
66.0611 426.0
66.3452 451.0
66.6293 445.0
66.9134 470.0
67.1975 442.0
67.4816 451.0
67.7657 422.0
68.0498 453.0
68.3339 445.0
68.618 482.0
68.9021 433.0
69.1862 422.0
69.4702 448.0
69.7543 486.0
70.0384 422.0
70.3225 398.0
70.6066 472.0
70.8907 440.0
71.1748 459.0
71.4589 441.0
71.743 435.0
72.0271 420.0
72.3112 464.0
72.5952 478.0
72.8793 416.0
73.1634 427.0
73.4475 416.0
73.7316 418.0
74.0157 462.0
74.2998 415.0
74.5839 389.0
74.868 386.0
75.1521 387.0
75.4362 392.0
75.7203 363.0
76.0043 378.0
76.2884 387.0
76.5725 339.0
76.8566 394.0
77.1407 352.0
77.4248 391.0
77.7089 443.0
77.993 356.0
78.2771 319.0
78.5612 353.0
78.8453 334.0
79.1294 365.0
79.4134 360.0
79.6975 323.0
79.9816 321.0
80.2657 351.0
80.5498 307.0
80.8339 340.0
81.118 330.0
81.4021 314.0
81.6862 303.0
81.9703 319.0
82.2544 299.0
82.5385 298.0
82.8225 295.0
83.1066 302.0
83.3907 289.0
83.6748 262.0
83.9589 263.0
84.243 287.0
84.5271 304.0
84.8112 278.0
85.0953 301.0
85.3794 282.0
85.6635 266.0
85.9476 255.0
86.2316 247.0
86.5157 248.0
86.7998 231.0
87.0839 236.0
87.368 250.0
87.6521 242.0
87.9362 238.0
88.2203 262.0
88.5044 239.0
88.7885 214.0
89.0726 225.0
89.3567 219.0
89.6407 219.0
89.9248 229.0
89.9415 270.0

File: 15022024_SAPO-34_SiAl_030_calc.xy
4.98146 1085.0
5.26555 971.0
5.54964 948.0
5.83373 870.0
6.11782 841.0
6.40191 823.0
6.68601 722.0
6.9701 697.0
7.25419 736.0
7.53828 694.0
7.82237 694.0
8.10646 638.0
8.39055 690.0
8.67465 597.0
8.95874 647.0
9.24283 836.0
9.52692 6197.0
9.81101 1855.0
10.0951 1011.0
10.3792 781.0
10.6633 814.0
10.9474 689.0
11.2315 629.0
11.5156 591.0
11.7997 606.0
12.0837 566.0
12.3678 545.0
12.6519 642.0
12.936 1856.0
13.2201 1160.0
13.5042 724.0
13.7883 573.0
14.0724 747.0
14.3565 529.0
14.6406 574.0
14.9247 527.0
15.2088 555.0
15.4928 748.0
15.7769 639.0
16.061 1047.0
16.3451 989.0
16.6292 801.0
16.9133 1118.0
17.1974 1063.0
17.4815 876.0
17.7656 989.0
18.0497 1057.0
18.3338 731.0
18.6179 726.0
18.9019 745.0
19.186 1154.0
19.4701 1058.0
19.7542 1029.0
20.0383 1091.0
20.3224 1064.0
20.6065 1490.0
20.8906 3949.0
21.1747 1480.0
21.4588 1365.0
21.7429 956.0
22.0269 836.0
22.311 902.0
22.5951 990.0
22.8792 963.0
23.1633 1214.0
23.4474 1219.0
23.7315 1190.0
24.0156 1559.0
24.2997 1443.0
24.5838 1215.0
24.8679 1147.0
25.152 1878.0
25.436 1325.0
25.7201 1181.0
26.0042 1492.0
26.2883 2116.0
26.5724 1598.0
26.8565 1187.0
27.1406 1123.0
27.4247 1104.0
27.7088 1126.0
27.9929 1440.0
28.277 1375.0
28.5611 1167.0
28.8451 1190.0
29.1292 1162.0
29.4133 1116.0
29.6974 1168.0
29.9815 1274.0
30.2656 1486.0
30.5497 1609.0
30.8338 2542.0
31.1179 2703.0
31.402 2572.0
31.6861 1720.0
31.9702 1516.0
32.2542 1337.0
32.5383 1230.0
32.8224 1133.0
33.1065 1059.0
33.3906 892.0
33.6747 906.0
33.9588 823.0
34.2429 808.0
34.527 801.0
34.8111 919.0
35.0952 771.0
35.3793 742.0
35.6633 661.0
35.9474 582.0
36.2315 736.0
36.5156 664.0
36.7997 588.0
37.0838 561.0
37.3679 543.0
37.652 496.0
37.9361 503.0
38.2202 520.0
38.5043 497.0
38.7884 502.0
39.0724 544.0
39.3565 527.0
39.6406 623.0
39.9247 581.0
40.2088 588.0
40.4929 514.0
40.777 531.0
41.0611 510.0
41.3452 507.0
41.6293 552.0
41.9134 513.0
42.1975 534.0
42.4815 504.0
42.7656 567.0
43.0497 614.0
43.3338 566.0
43.6179 584.0
43.902 600.0
44.1861 522.0
44.4702 534.0
44.7543 513.0
45.0384 542.0
45.3225 481.0
45.6066 506.0
45.8906 488.0
46.1747 489.0
46.4588 494.0
46.7429 481.0
47.027 512.0
47.3111 504.0
47.5952 501.0
47.8793 525.0
48.1634 565.0
48.4475 528.0
48.7316 513.0
49.0156 536.0
49.2997 747.0
49.5838 719.0
49.8679 666.0
50.152 635.0
50.4361 561.0
50.7202 578.0
51.0043 578.0
51.2884 625.0
51.5725 554.0
51.8566 571.0
52.1407 611.0
52.4247 554.0
52.7088 565.0
52.9929 553.0
53.277 517.0
53.5611 525.0
53.8452 592.0
54.1293 538.0
54.4134 548.0
54.6975 543.0
54.9816 526.0
55.2657 540.0
55.5498 512.0
55.8338 560.0
56.1179 541.0
56.402 560.0
56.6861 537.0
56.9702 512.0
57.2543 433.0
57.5384 480.0
57.8225 473.0
58.1066 444.0
58.3907 440.0
58.6748 420.0
58.9589 443.0
59.2429 462.0
59.527 428.0
59.8111 461.0
60.0952 454.0
60.3793 424.0
60.6634 439.0
60.9475 495.0
61.2316 459.0
61.5157 465.0
61.7998 435.0
62.0839 462.0
62.368 463.0
62.652 420.0
62.9361 464.0
63.2202 457.0
63.5043 462.0
63.7884 436.0
64.0725 402.0
64.3566 407.0
64.6407 384.0
64.9248 442.0
65.2089 455.0
65.493 404.0
65.7771 420.0
66.0611 439.0
66.3452 428.0
66.6293 427.0
66.9134 456.0
67.1975 481.0
67.4816 469.0
67.7657 430.0
68.0498 422.0
68.3339 433.0
68.618 434.0
68.9021 418.0
69.1862 416.0
69.4702 398.0
69.7543 419.0
70.0384 464.0
70.3225 417.0
70.6066 425.0
70.8907 399.0
71.1748 464.0
71.4589 455.0
71.743 433.0
72.0271 433.0
72.3112 435.0
72.5952 404.0
72.8793 411.0
73.1634 380.0
73.4475 370.0
73.7316 429.0
74.0157 368.0
74.2998 375.0
74.5839 352.0
74.868 398.0
75.1521 388.0
75.4362 372.0
75.7203 373.0
76.0043 391.0
76.2884 365.0
76.5725 365.0
76.8566 356.0
77.1407 333.0
77.4248 330.0
77.7089 363.0
77.993 351.0
78.2771 331.0
78.5612 357.0
78.8453 305.0
79.1294 354.0
79.4134 322.0
79.6975 321.0
79.9816 329.0
80.2657 260.0
80.5498 313.0
80.8339 301.0
81.118 325.0
81.4021 311.0
81.6862 309.0
81.9703 323.0
82.2544 297.0
82.5385 294.0
82.8225 298.0
83.1066 288.0
83.3907 254.0
83.6748 293.0
83.9589 259.0
84.243 268.0
84.5271 269.0
84.8112 272.0
85.0953 225.0
85.3794 222.0
85.6635 242.0
85.9476 224.0
86.2316 233.0
86.5157 236.0
86.7998 246.0
87.0839 251.0
87.368 248.0
87.6521 225.0
87.9362 211.0
88.2203 207.0
88.5044 267.0
88.7885 232.0
89.0726 220.0
89.3567 180.0
89.6407 205.0
89.9248 215.0
89.9415 207.0

File: 15022024_SAPO-34_SiAl_045_calc.xy
4.98146 1045.0
5.26555 928.0
5.54964 933.0
5.83373 870.0
6.11782 877.0
6.40191 817.0
6.68601 810.0
6.9701 759.0
7.25419 729.0
7.53828 676.0
7.82237 674.0
8.10646 659.0
8.39055 638.0
8.67465 637.0
8.95874 628.0
9.24283 774.0
9.52692 4408.0
9.81101 2172.0
10.0951 996.0
10.3792 708.0
10.6633 786.0
10.9474 700.0
11.2315 642.0
11.5156 512.0
11.7997 575.0
12.0837 504.0
12.3678 569.0
12.6519 607.0
12.936 1433.0
13.2201 1113.0
13.5042 667.0
13.7883 569.0
14.0724 591.0
14.3565 534.0
14.6406 497.0
14.9247 491.0
15.2088 492.0
15.4928 668.0
15.7769 634.0
16.061 951.0
16.3451 1054.0
16.6292 757.0
16.9133 993.0
17.1974 997.0
17.4815 861.0
17.7656 831.0
18.0497 965.0
18.3338 686.0
18.6179 648.0
18.9019 731.0
19.186 1006.0
19.4701 920.0
19.7542 971.0
20.0383 982.0
20.3224 973.0
20.6065 1201.0
20.8906 3220.0
21.1747 1336.0
21.4588 1228.0
21.7429 920.0
22.0269 767.0
22.311 892.0
22.5951 868.0
22.8792 864.0
23.1633 1036.0
23.4474 1181.0
23.7315 1103.0
24.0156 1320.0
24.2997 1325.0
24.5838 1117.0
24.8679 1059.0
25.152 1518.0
25.436 1187.0
25.7201 1089.0
26.0042 1417.0
26.2883 1812.0
26.5724 1462.0
26.8565 1181.0
27.1406 1109.0
27.4247 989.0
27.7088 1062.0
27.9929 1196.0
28.277 1105.0
28.5611 1122.0
28.8451 1080.0
29.1292 1072.0
29.4133 997.0
29.6974 1122.0
29.9815 1252.0
30.2656 1392.0
30.5497 1598.0
30.8338 2089.0
31.1179 2351.0
31.402 2288.0
31.6861 1665.0
31.9702 1427.0
32.2542 1244.0
32.5383 1147.0
32.8224 1181.0
33.1065 1038.0
33.3906 945.0
33.6747 838.0
33.9588 804.0
34.2429 755.0
34.527 793.0
34.8111 792.0
35.0952 644.0
35.3793 654.0
35.6633 654.0
35.9474 545.0
36.2315 603.0
36.5156 626.0
36.7997 528.0
37.0838 508.0
37.3679 494.0
37.652 485.0
37.9361 494.0
38.2202 481.0
38.5043 486.0
38.7884 440.0
39.0724 447.0
39.3565 537.0
39.6406 539.0
39.9247 504.0
40.2088 587.0
40.4929 504.0
40.777 511.0
41.0611 512.0
41.3452 498.0
41.6293 517.0
41.9134 435.0
42.1975 445.0
42.4815 443.0
42.7656 510.0
43.0497 555.0
43.3338 535.0
43.6179 541.0
43.902 554.0
44.1861 541.0
44.4702 509.0
44.7543 496.0
45.0384 534.0
45.3225 510.0
45.6066 428.0
45.8906 490.0
46.1747 471.0
46.4588 456.0
46.7429 474.0
47.027 502.0
47.3111 500.0
47.5952 466.0
47.8793 509.0
48.1634 506.0
48.4475 521.0
48.7316 505.0
49.0156 501.0
49.2997 649.0
49.5838 664.0
49.8679 630.0
50.152 580.0
50.4361 580.0
50.7202 524.0
51.0043 599.0
51.2884 559.0
51.5725 553.0
51.8566 575.0
52.1407 550.0
52.4247 506.0
52.7088 539.0
52.9929 570.0
53.277 510.0
53.5611 529.0
53.8452 573.0
54.1293 527.0
54.4134 540.0
54.6975 466.0
54.9816 492.0
55.2657 480.0
55.5498 492.0
55.8338 527.0
56.1179 516.0
56.402 472.0
56.6861 482.0
56.9702 506.0
57.2543 454.0
57.5384 491.0
57.8225 453.0
58.1066 488.0
58.3907 418.0
58.6748 411.0
58.9589 417.0
59.2429 427.0
59.527 443.0
59.8111 433.0
60.0952 471.0
60.3793 459.0
60.6634 482.0
60.9475 463.0
61.2316 462.0
61.5157 418.0
61.7998 417.0
62.0839 423.0
62.368 469.0
62.652 485.0
62.9361 424.0
63.2202 415.0
63.5043 404.0
63.7884 416.0
64.0725 412.0
64.3566 388.0
64.6407 442.0
64.9248 392.0
65.2089 387.0
65.493 401.0
65.7771 392.0
66.0611 417.0
66.3452 394.0
66.6293 422.0
66.9134 438.0
67.1975 473.0
67.4816 450.0
67.7657 433.0
68.0498 415.0
68.3339 434.0
68.618 426.0
68.9021 447.0
69.1862 422.0
69.4702 420.0
69.7543 415.0
70.0384 450.0
70.3225 422.0
70.6066 398.0
70.8907 403.0
71.1748 430.0
71.4589 393.0
71.743 413.0
72.0271 397.0
72.3112 443.0
72.5952 422.0
72.8793 378.0
73.1634 372.0
73.4475 401.0
73.7316 393.0
74.0157 363.0
74.2998 333.0
74.5839 371.0
74.868 381.0
75.1521 383.0
75.4362 376.0
75.7203 384.0
76.0043 400.0
76.2884 348.0
76.5725 389.0
76.8566 337.0
77.1407 361.0
77.4248 358.0
77.7089 334.0
77.993 319.0
78.2771 331.0
78.5612 313.0
78.8453 356.0
79.1294 302.0
79.4134 339.0
79.6975 308.0
79.9816 300.0
80.2657 302.0
80.5498 329.0
80.8339 309.0
81.118 319.0
81.4021 294.0
81.6862 301.0
81.9703 318.0
82.2544 284.0
82.5385 244.0
82.8225 264.0
83.1066 276.0
83.3907 280.0
83.6748 214.0
83.9589 243.0
84.243 263.0
84.5271 252.0
84.8112 261.0
85.0953 220.0
85.3794 276.0
85.6635 247.0
85.9476 213.0
86.2316 198.0
86.5157 253.0
86.7998 241.0
87.0839 240.0
87.368 238.0
87.6521 226.0
87.9362 227.0
88.2203 239.0
88.5044 232.0
88.7885 215.0
89.0726 203.0
89.3567 214.0
89.6407 197.0
89.9248 223.0
89.9415 197.0

File: 25012024_SAPO-34_SiAl_04_calc.xy
4.98146 1090.0
5.26555 1024.0
5.54964 1031.0
5.83373 932.0
6.11782 903.0
6.40191 851.0
6.68601 839.0
6.9701 758.0
7.25419 743.0
7.53828 698.0
7.82237 725.0
8.10646 712.0
8.39055 722.0
8.67465 649.0
8.95874 675.0
9.24283 975.0
9.52692 10985.0
9.81101 1812.0
10.0951 1137.0
10.3792 910.0
10.6633 924.0
10.9474 903.0
11.2315 759.0
11.5156 645.0
11.7997 689.0
12.0837 682.0
12.3678 663.0
12.6519 741.0
12.936 2695.0
13.2201 1004.0
13.5042 888.0
13.7883 661.0
14.0724 810.0
14.3565 588.0
14.6406 591.0
14.9247 622.0
15.2088 610.0
15.4928 746.0
15.7769 758.0
16.061 1460.0
16.3451 1022.0
16.6292 928.0
16.9133 1248.0
17.1974 1179.0
17.4815 1114.0
17.7656 1075.0
18.0497 1166.0
18.3338 876.0
18.6179 856.0
18.9019 947.0
19.186 1486.0
19.4701 1105.0
19.7542 1191.0
20.0383 1159.0
20.3224 1201.0
20.6065 1899.0
20.8906 3056.0
21.1747 1507.0
21.4588 1518.0
21.7429 1082.0
22.0269 885.0
22.311 1058.0
22.5951 1062.0
22.8792 1163.0
23.1633 1321.0
23.4474 1269.0
23.7315 1357.0
24.0156 1677.0
24.2997 1644.0
24.5838 1426.0
24.8679 1414.0
25.152 1742.0
25.436 1438.0
25.7201 1476.0
26.0042 1954.0
26.2883 2058.0
26.5724 1596.0
26.8565 1448.0
27.1406 1332.0
27.4247 1272.0
27.7088 1333.0
27.9929 1490.0
28.277 1450.0
28.5611 1474.0
28.8451 1336.0
29.1292 1341.0
29.4133 1243.0
29.6974 1335.0
29.9815 1539.0
30.2656 1664.0
30.5497 1973.0
30.8338 2693.0
31.1179 2661.0
31.402 2557.0
31.6861 1909.0
31.9702 1622.0
32.2542 1384.0
32.5383 1406.0
32.8224 1379.0
33.1065 1276.0
33.3906 1043.0
33.6747 976.0
33.9588 957.0
34.2429 938.0
34.527 862.0
34.8111 967.0
35.0952 782.0
35.3793 743.0
35.6633 720.0
35.9474 712.0
36.2315 723.0
36.5156 708.0
36.7997 663.0
37.0838 625.0
37.3679 611.0
37.652 628.0
37.9361 589.0
38.2202 557.0
38.5043 548.0
38.7884 580.0
39.0724 628.0
39.3565 589.0
39.6406 564.0
39.9247 616.0
40.2088 657.0
40.4929 610.0
40.777 561.0
41.0611 605.0
41.3452 594.0
41.6293 555.0
41.9134 555.0
42.1975 590.0
42.4815 550.0
42.7656 547.0
43.0497 587.0
43.3338 647.0
43.6179 585.0
43.902 570.0
44.1861 554.0
44.4702 568.0
44.7543 538.0
45.0384 568.0
45.3225 583.0
45.6066 551.0
45.8906 506.0
46.1747 551.0
46.4588 509.0
46.7429 520.0
47.027 524.0
47.3111 561.0
47.5952 565.0
47.8793 548.0
48.1634 561.0
48.4475 565.0
48.7316 596.0
49.0156 595.0
49.2997 774.0
49.5838 706.0
49.8679 679.0
50.152 637.0
50.4361 566.0
50.7202 605.0
51.0043 643.0
51.2884 668.0
51.5725 612.0
51.8566 586.0
52.1407 622.0
52.4247 603.0
52.7088 581.0
52.9929 654.0
53.277 573.0
53.5611 575.0
53.8452 599.0
54.1293 505.0
54.4134 568.0
54.6975 548.0
54.9816 565.0
55.2657 526.0
55.5498 552.0
55.8338 614.0
56.1179 556.0
56.402 572.0
56.6861 556.0
56.9702 545.0
57.2543 463.0
57.5384 521.0
57.8225 505.0
58.1066 449.0
58.3907 501.0
58.6748 478.0
58.9589 474.0
59.2429 491.0
59.527 487.0
59.8111 507.0
60.0952 498.0
60.3793 497.0
60.6634 518.0
60.9475 498.0
61.2316 454.0
61.5157 472.0
61.7998 487.0
62.0839 454.0
62.368 464.0
62.652 478.0
62.9361 474.0
63.2202 479.0
63.5043 443.0
63.7884 467.0
64.0725 494.0
64.3566 398.0
64.6407 501.0
64.9248 411.0
65.2089 434.0
65.493 457.0
65.7771 459.0
66.0611 477.0
66.3452 458.0
66.6293 502.0
66.9134 448.0
67.1975 424.0
67.4816 495.0
67.7657 461.0
68.0498 450.0
68.3339 462.0
68.618 436.0
68.9021 445.0
69.1862 457.0
69.4702 444.0
69.7543 467.0
70.0384 410.0
70.3225 431.0
70.6066 412.0
70.8907 406.0
71.1748 432.0
71.4589 453.0
71.743 433.0
72.0271 451.0
72.3112 404.0
72.5952 383.0
72.8793 395.0
73.1634 451.0
73.4475 441.0
73.7316 375.0
74.0157 412.0
74.2998 414.0
74.5839 384.0
74.868 368.0
75.1521 426.0
75.4362 372.0
75.7203 394.0
76.0043 377.0
76.2884 379.0
76.5725 393.0
76.8566 370.0
77.1407 350.0
77.4248 401.0
77.7089 363.0
77.993 382.0
78.2771 354.0
78.5612 369.0
78.8453 370.0
79.1294 344.0
79.4134 325.0
79.6975 342.0
79.9816 355.0
80.2657 338.0
80.5498 317.0
80.8339 299.0
81.118 299.0
81.4021 345.0
81.6862 337.0
81.9703 319.0
82.2544 302.0
82.5385 274.0
82.8225 315.0
83.1066 266.0
83.3907 279.0
83.6748 285.0
83.9589 306.0
84.243 282.0
84.5271 290.0
84.8112 256.0
85.0953 276.0
85.3794 305.0
85.6635 259.0
85.9476 260.0
86.2316 266.0
86.5157 248.0
86.7998 261.0
87.0839 259.0
87.368 245.0
87.6521 262.0
87.9362 231.0
88.2203 238.0
88.5044 238.0
88.7885 228.0
89.0726 256.0
89.3567 253.0
89.6407 226.0
89.9248 232.0
89.9415 219.0

File: 25012024_SAPO-34_SiAl_035_calc.xy
4.98146 1176.0
5.26555 1023.0
5.54964 1010.0
5.83373 946.0
6.11782 910.0
6.40191 839.0
6.68601 847.0
6.9701 820.0
7.25419 797.0
7.53828 779.0
7.82237 723.0
8.10646 715.0
8.39055 697.0
8.67465 694.0
8.95874 693.0
9.24283 967.0
9.52692 7270.0
9.81101 1934.0
10.0951 1159.0
10.3792 846.0
10.6633 924.0
10.9474 726.0
11.2315 665.0
11.5156 646.0
11.7997 685.0
12.0837 601.0
12.3678 653.0
12.6519 731.0
12.936 1941.0
13.2201 1096.0
13.5042 773.0
13.7883 684.0
14.0724 662.0
14.3565 554.0
14.6406 564.0
14.9247 542.0
15.2088 584.0
15.4928 768.0
15.7769 736.0
16.061 1094.0
16.3451 931.0
16.6292 891.0
16.9133 1166.0
17.1974 1110.0
17.4815 948.0
17.7656 1104.0
18.0497 973.0
18.3338 791.0
18.6179 813.0
18.9019 803.0
19.186 1294.0
19.4701 1130.0
19.7542 1089.0
20.0383 1063.0
20.3224 1097.0
20.6065 1656.0
20.8906 2936.0
21.1747 1430.0
21.4588 1385.0
21.7429 981.0
22.0269 930.0
22.311 912.0
22.5951 1078.0
22.8792 1009.0
23.1633 1300.0
23.4474 1179.0
23.7315 1277.0
24.0156 1632.0
24.2997 1472.0
24.5838 1357.0
24.8679 1350.0
25.152 1533.0
25.436 1257.0
25.7201 1328.0
26.0042 1702.0
26.2883 1922.0
26.5724 1539.0
26.8565 1265.0
27.1406 1266.0
27.4247 1229.0
27.7088 1235.0
27.9929 1390.0
28.277 1462.0
28.5611 1261.0
28.8451 1307.0
29.1292 1265.0
29.4133 1213.0
29.6974 1306.0
29.9815 1437.0
30.2656 1624.0
30.5497 1778.0
30.8338 2664.0
31.1179 2692.0
31.402 2446.0
31.6861 1769.0
31.9702 1647.0
32.2542 1444.0
32.5383 1347.0
32.8224 1301.0
33.1065 1182.0
33.3906 1072.0
33.6747 1037.0
33.9588 962.0
34.2429 866.0
34.527 909.0
34.8111 908.0
35.0952 786.0
35.3793 755.0
35.6633 669.0
35.9474 677.0
36.2315 701.0
36.5156 645.0
36.7997 654.0
37.0838 548.0
37.3679 574.0
37.652 564.0
37.9361 518.0
38.2202 555.0
38.5043 567.0
38.7884 559.0
39.0724 574.0
39.3565 553.0
39.6406 602.0
39.9247 597.0
40.2088 591.0
40.4929 585.0
40.777 547.0
41.0611 551.0
41.3452 591.0
41.6293 513.0
41.9134 536.0
42.1975 533.0
42.4815 583.0
42.7656 574.0
43.0497 621.0
43.3338 637.0
43.6179 598.0
43.902 537.0
44.1861 569.0
44.4702 518.0
44.7543 526.0
45.0384 538.0
45.3225 511.0
45.6066 548.0
45.8906 528.0
46.1747 525.0
46.4588 513.0
46.7429 543.0
47.027 539.0
47.3111 535.0
47.5952 514.0
47.8793 549.0
48.1634 554.0
48.4475 567.0
48.7316 541.0
49.0156 572.0
49.2997 723.0
49.5838 701.0
49.8679 643.0
50.152 602.0
50.4361 623.0
50.7202 559.0
51.0043 654.0
51.2884 612.0
51.5725 616.0
51.8566 573.0
52.1407 637.0
52.4247 615.0
52.7088 600.0
52.9929 598.0
53.277 557.0
53.5611 588.0
53.8452 607.0
54.1293 587.0
54.4134 573.0
54.6975 558.0
54.9816 522.0
55.2657 566.0
55.5498 569.0
55.8338 570.0
56.1179 479.0
56.402 548.0
56.6861 470.0
56.9702 525.0
57.2543 564.0
57.5384 465.0
57.8225 470.0
58.1066 469.0
58.3907 506.0
58.6748 501.0
58.9589 456.0
59.2429 480.0
59.527 474.0
59.8111 491.0
60.0952 483.0
60.3793 491.0
60.6634 481.0
60.9475 507.0
61.2316 500.0
61.5157 459.0
61.7998 487.0
62.0839 466.0
62.368 457.0
62.652 460.0
62.9361 451.0
63.2202 471.0
63.5043 442.0
63.7884 411.0
64.0725 480.0
64.3566 469.0
64.6407 430.0
64.9248 472.0
65.2089 418.0
65.493 449.0
65.7771 434.0
66.0611 433.0
66.3452 451.0
66.6293 431.0
66.9134 482.0
67.1975 439.0
67.4816 488.0
67.7657 446.0
68.0498 435.0
68.3339 455.0
68.618 429.0
68.9021 424.0
69.1862 483.0
69.4702 431.0
69.7543 453.0
70.0384 436.0
70.3225 451.0
70.6066 418.0
70.8907 403.0
71.1748 425.0
71.4589 394.0
71.743 450.0
72.0271 427.0
72.3112 474.0
72.5952 412.0
72.8793 411.0
73.1634 450.0
73.4475 434.0
73.7316 413.0
74.0157 389.0
74.2998 369.0
74.5839 397.0
74.868 361.0
75.1521 373.0
75.4362 369.0
75.7203 402.0
76.0043 382.0
76.2884 376.0
76.5725 400.0
76.8566 412.0
77.1407 353.0
77.4248 332.0
77.7089 326.0
77.993 371.0
78.2771 418.0
78.5612 357.0
78.8453 324.0
79.1294 313.0
79.4134 351.0
79.6975 318.0
79.9816 314.0
80.2657 309.0
80.5498 309.0
80.8339 335.0
81.118 298.0
81.4021 322.0
81.6862 311.0
81.9703 288.0
82.2544 306.0
82.5385 288.0
82.8225 290.0
83.1066 279.0
83.3907 292.0
83.6748 282.0
83.9589 274.0
84.243 286.0
84.5271 261.0
84.8112 288.0
85.0953 277.0
85.3794 262.0
85.6635 257.0
85.9476 272.0
86.2316 248.0
86.5157 255.0
86.7998 251.0
87.0839 269.0
87.368 221.0
87.6521 229.0
87.9362 213.0
88.2203 250.0
88.5044 224.0
88.7885 244.0
89.0726 240.0
89.3567 228.0
89.6407 211.0
89.9248 195.0
89.9415 206.0