Folder: bachelor_thesis/code/XRD_Analysis/Zeolites/data_files/SAPO-34/calc

Note: README.md
# bachelor_thesis
Hydrogensiation of CO2 to higher alcohols

File: 20241029_SAPO-34-1_calc_Probe-1.xy
4.98146 957.0
5.26555 882.0
5.54964 841.0
5.83373 805.0
6.11782 737.0
6.40191 706.0
6.68601 685.0
6.9701 656.0
7.25419 649.0
7.53828 664.0
7.82237 659.0
8.10646 621.0
8.39055 592.0
8.67465 611.0
8.95874 619.0
9.24283 812.0
9.52692 17014.0
9.81101 892.0
10.0951 698.0
10.3792 701.0
10.6633 660.0
10.9474 676.0
11.2315 587.0
11.5156 617.0
11.7997 598.0
12.0837 550.0
12.3678 582.0
12.6519 613.0
12.936 3080.0
13.2201 659.0
13.5042 881.0
13.7883 481.0
14.0724 570.0
14.3565 491.0
14.6406 531.0
14.9247 501.0
15.2088 549.0
15.4928 554.0
15.7769 579.0
16.061 1666.0
16.3451 667.0
16.6292 821.0
16.9133 1055.0
17.1974 1018.0
17.4815 816.0
17.7656 986.0
18.0497 660.0
18.3338 670.0
18.6179 724.0
18.9019 680.0
19.186 1447.0
19.4701 726.0
19.7542 790.0
20.0383 842.0
20.3224 877.0
20.6065 1494.0
20.8906 1606.0
21.1747 1204.0
21.4588 1444.0
21.7429 756.0
22.0269 781.0
22.311 740.0
22.5951 830.0
22.8792 845.0
23.1633 1282.0
23.4474 953.0
23.7315 1057.0
24.0156 1213.0
24.2997 1180.0
24.5838 1163.0
24.8679 1250.0
25.152 1246.0
25.436 1072.0
25.7201 1131.0
26.0042 1678.0
26.2883 1291.0
26.5724 1114.0
26.8565 1010.0
27.1406 978.0
27.4247 941.0
27.7088 995.0
27.9929 1008.0
28.277 1227.0
28.5611 992.0
28.8451 967.0
29.1292 997.0
29.4133 946.0
29.6974 1278.0
29.9815 1177.0
30.2656 1435.0
30.5497 1783.0
30.8338 2188.0
31.1179 2460.0
31.402 1978.0
31.6861 1236.0
31.9702 1237.0
32.2542 1047.0
32.5383 1004.0
32.8224 889.0
33.1065 821.0
33.3906 773.0
33.6747 786.0
33.9588 697.0
34.2429 667.0
34.527 692.0
34.8111 715.0
35.0952 623.0
35.3793 582.0
35.6633 548.0
35.9474 552.0
36.2315 591.0
36.5156 561.0
36.7997 465.0
37.0838 469.0
37.3679 445.0
37.652 503.0
37.9361 419.0
38.2202 419.0
38.5043 430.0
38.7884 461.0
39.0724 478.0
39.3565 475.0
39.6406 481.0
39.9247 495.0
40.2088 459.0
40.4929 460.0
40.777 430.0
41.0611 456.0
41.3452 438.0
41.6293 440.0
41.9134 474.0
42.1975 456.0
42.4815 412.0
42.7656 429.0
43.0497 488.0
43.3338 485.0
43.6179 440.0
43.902 480.0
44.1861 401.0
44.4702 430.0
44.7543 404.0
45.0384 425.0
45.3225 409.0
45.6066 385.0
45.8906 399.0
46.1747 417.0
46.4588 398.0
46.7429 402.0
47.027 416.0
47.3111 427.0
47.5952 383.0
47.8793 419.0
48.1634 424.0
48.4475 410.0
48.7316 442.0
49.0156 518.0
49.2997 643.0
49.5838 519.0
49.8679 471.0
50.152 432.0
50.4361 485.0
50.7202 447.0
51.0043 456.0
51.2884 526.0
51.5725 465.0
51.8566 451.0
52.1407 450.0
52.4247 391.0
52.7088 410.0
52.9929 389.0
53.277 419.0
53.5611 461.0
53.8452 439.0
54.1293 403.0
54.4134 407.0
54.6975 407.0
54.9816 371.0
55.2657 399.0
55.5498 356.0
55.8338 434.0
56.1179 383.0
56.402 400.0
56.6861 396.0
56.9702 377.0
57.2543 392.0
57.5384 362.0
57.8225 328.0
58.1066 357.0
58.3907 369.0
58.6748 387.0
58.9589 354.0
59.2429 341.0
59.527 363.0
59.8111 380.0
60.0952 371.0
60.3793 340.0
60.6634 345.0
60.9475 366.0
61.2316 353.0
61.5157 393.0
61.7998 401.0
62.0839 332.0
62.368 377.0
62.652 375.0
62.9361 332.0
63.2202 345.0
63.5043 384.0
63.7884 366.0
64.0725 367.0
64.3566 363.0
64.6407 357.0
64.9248 314.0
65.2089 333.0
65.493 340.0
65.7771 310.0
66.0611 354.0
66.3452 317.0
66.6293 340.0
66.9134 357.0
67.1975 370.0
67.4816 347.0
67.7657 338.0
68.0498 362.0
68.3339 344.0
68.618 341.0
68.9021 290.0
69.1862 328.0
69.4702 322.0
69.7543 319.0
70.0384 328.0
70.3225 317.0
70.6066 339.0
70.8907 361.0
71.1748 352.0
71.4589 302.0
71.743 311.0
72.0271 314.0
72.3112 303.0
72.5952 294.0
72.8793 297.0
73.1634 297.0
73.4475 300.0
73.7316 288.0
74.0157 329.0
74.2998 293.0
74.5839 303.0
74.868 270.0
75.1521 310.0
75.4362 292.0
75.7203 286.0
76.0043 286.0
76.2884 288.0
76.5725 277.0
76.8566 250.0
77.1407 300.0
77.4248 247.0
77.7089 254.0
77.993 255.0
78.2771 266.0
78.5612 245.0
78.8453 241.0
79.1294 256.0
79.4134 269.0
79.6975 248.0
79.9816 253.0
80.2657 237.0
80.5498 239.0
80.8339 246.0
81.118 215.0
81.4021 208.0
81.6862 229.0
81.9703 193.0
82.2544 205.0
82.5385 209.0
82.8225 246.0
83.1066 232.0
83.3907 200.0
83.6748 191.0
83.9589 222.0
84.243 185.0
84.5271 213.0
84.8112 192.0
85.0953 223.0
85.3794 197.0
85.6635 192.0
85.9476 169.0
86.2316 176.0
86.5157 169.0
86.7998 169.0
87.0839 172.0
87.368 174.0
87.6521 149.0
87.9362 174.0
88.2203 168.0
88.5044 144.0
88.7885 176.0
89.0726 153.0
89.3567 176.0
89.6407 181.0
89.9248 175.0
89.9415 174.0

File: 20241029_SAPO-34-1_calc_Probe-2.xy
4.98146 1033.0
5.26555 931.0
5.54964 837.0
5.83373 846.0
6.11782 789.0
6.40191 752.0
6.68601 752.0
6.9701 672.0
7.25419 704.0
7.53828 725.0
7.82237 672.0
8.10646 609.0
8.39055 605.0
8.67465 631.0
8.95874 648.0
9.24283 916.0
9.52692 25143.0
9.81101 986.0
10.0951 778.0
10.3792 686.0
10.6633 581.0
10.9474 670.0
11.2315 639.0
11.5156 645.0
11.7997 649.0
12.0837 679.0
12.3678 648.0
12.6519 688.0
12.936 3038.0
13.2201 723.0
13.5042 887.0
13.7883 512.0
14.0724 674.0
14.3565 561.0
14.6406 568.0
14.9247 612.0
15.2088 574.0
15.4928 616.0
15.7769 633.0
16.061 1523.0
16.3451 766.0
16.6292 830.0
16.9133 1073.0
17.1974 1097.0
17.4815 935.0
17.7656 1170.0
18.0497 855.0
18.3338 781.0
18.6179 751.0
18.9019 790.0
19.186 1776.0
19.4701 755.0
19.7542 853.0
20.0383 957.0
20.3224 1066.0
20.6065 1447.0
20.8906 2052.0
21.1747 1413.0
21.4588 1391.0
21.7429 887.0
22.0269 880.0
22.311 857.0
22.5951 957.0
22.8792 966.0
23.1633 1456.0
23.4474 1125.0
23.7315 1152.0
24.0156 1225.0
24.2997 1235.0
24.5838 1286.0
24.8679 1445.0
25.152 1500.0
25.436 1262.0
25.7201 1255.0
26.0042 1678.0
26.2883 1574.0
26.5724 1207.0
26.8565 1239.0
27.1406 1123.0
27.4247 1054.0
27.7088 1123.0
27.9929 1258.0
28.277 1437.0
28.5611 1183.0
28.8451 1109.0
29.1292 1047.0
29.4133 1088.0
29.6974 1356.0
29.9815 1296.0
30.2656 1543.0
30.5497 1879.0
30.8338 2504.0
31.1179 2834.0
31.402 2165.0
31.6861 1367.0
31.9702 1336.0
32.2542 1175.0
32.5383 1122.0
32.8224 1033.0
33.1065 892.0
33.3906 816.0
33.6747 957.0
33.9588 834.0
34.2429 801.0
34.527 792.0
34.8111 850.0
35.0952 805.0
35.3793 703.0
35.6633 694.0
35.9474 734.0
36.2315 717.0
36.5156 634.0
36.7997 602.0
37.0838 607.0
37.3679 570.0
37.652 501.0
37.9361 518.0
38.2202 568.0
38.5043 536.0
38.7884 616.0
39.0724 582.0
39.3565 630.0
39.6406 586.0
39.9247 540.0
40.2088 588.0
40.4929 537.0
40.777 517.0
41.0611 506.0
41.3452 514.0
41.6293 551.0
41.9134 544.0
42.1975 585.0
42.4815 584.0
42.7656 514.0
43.0497 555.0
43.3338 580.0
43.6179 597.0
43.902 548.0
44.1861 559.0
44.4702 536.0
44.7543 529.0
45.0384 534.0
45.3225 563.0
45.6066 535.0
45.8906 540.0
46.1747 518.0
46.4588 543.0
46.7429 532.0
47.027 467.0
47.3111 510.0
47.5952 509.0
47.8793 500.0
48.1634 532.0
48.4475 502.0
48.7316 536.0
49.0156 545.0
49.2997 840.0
49.5838 592.0
49.8679 534.0
50.152 516.0
50.4361 542.0
50.7202 501.0
51.0043 572.0
51.2884 538.0
51.5725 544.0
51.8566 520.0
52.1407 486.0
52.4247 524.0
52.7088 502.0
52.9929 500.0
53.277 519.0
53.5611 518.0
53.8452 545.0
54.1293 500.0
54.4134 524.0
54.6975 534.0
54.9816 486.0
55.2657 435.0
55.5498 498.0
55.8338 495.0
56.1179 463.0
56.402 504.0
56.6861 539.0
56.9702 479.0
57.2543 446.0
57.5384 455.0
57.8225 433.0
58.1066 413.0
58.3907 448.0
58.6748 442.0
58.9589 427.0
59.2429 495.0
59.527 401.0
59.8111 486.0
60.0952 454.0
60.3793 448.0
60.6634 451.0
60.9475 444.0
61.2316 449.0
61.5157 448.0
61.7998 465.0
62.0839 469.0
62.368 454.0
62.652 439.0
62.9361 458.0
63.2202 426.0
63.5043 422.0
63.7884 430.0
64.0725 414.0
64.3566 427.0
64.6407 404.0
64.9248 407.0
65.2089 429.0
65.493 447.0
65.7771 433.0
66.0611 465.0
66.3452 488.0
66.6293 473.0
66.9134 495.0
67.1975 516.0
67.4816 483.0
67.7657 396.0
68.0498 389.0
68.3339 424.0
68.618 427.0
68.9021 397.0
69.1862 382.0
69.4702 376.0
69.7543 368.0
70.0384 413.0
70.3225 397.0
70.6066 443.0
70.8907 420.0
71.1748 384.0
71.4589 372.0
71.743 396.0
72.0271 394.0
72.3112 378.0
72.5952 367.0
72.8793 364.0
73.1634 368.0
73.4475 361.0
73.7316 351.0
74.0157 350.0
74.2998 341.0
74.5839 377.0
74.868 360.0
75.1521 332.0
75.4362 336.0
75.7203 340.0
76.0043 341.0
76.2884 370.0
76.5725 302.0
76.8566 368.0
77.1407 375.0
77.4248 324.0
77.7089 334.0
77.993 325.0
78.2771 322.0
78.5612 328.0
78.8453 324.0
79.1294 323.0
79.4134 317.0
79.6975 285.0
79.9816 360.0
80.2657 293.0
80.5498 313.0
80.8339 290.0
81.118 298.0
81.4021 260.0
81.6862 254.0
81.9703 258.0
82.2544 280.0
82.5385 247.0
82.8225 252.0
83.1066 264.0
83.3907 239.0
83.6748 256.0
83.9589 250.0
84.243 253.0
84.5271 251.0
84.8112 219.0
85.0953 260.0
85.3794 228.0
85.6635 258.0
85.9476 255.0
86.2316 236.0
86.5157 219.0
86.7998 223.0
87.0839 193.0
87.368 226.0
87.6521 223.0
87.9362 198.0
88.2203 235.0
88.5044 199.0
88.7885 216.0
89.0726 239.0
89.3567 210.0
89.6407 198.0
89.9248 223.0
89.9415 237.0

File: 20241114_SAPO-34-2_calc_Probe-1.xy
4.98146 1021.0
5.26555 930.0
5.54964 837.0
5.83373 785.0
6.11782 756.0
6.40191 675.0
6.68601 681.0
6.9701 656.0
7.25419 659.0
7.53828 594.0
7.82237 568.0
8.10646 549.0
8.39055 563.0
8.67465 564.0
8.95874 559.0
9.24283 673.0
9.52692 3433.0
9.81101 2565.0
10.0951 781.0
10.3792 659.0
10.6633 732.0
10.9474 664.0
11.2315 538.0
11.5156 550.0
11.7997 522.0
12.0837 561.0
12.3678 513.0
12.6519 524.0
12.936 1078.0
13.2201 1151.0
13.5042 651.0
13.7883 505.0
14.0724 575.0
14.3565 416.0
14.6406 415.0
14.9247 416.0
15.2088 411.0
15.4928 488.0
15.7769 554.0
16.061 684.0
16.3451 1549.0
16.6292 621.0
16.9133 840.0
17.1974 1179.0
17.4815 1054.0
17.7656 801.0
18.0497 1274.0
18.3338 601.0
18.6179 582.0
18.9019 685.0
19.186 972.0
19.4701 761.0
19.7542 846.0
20.0383 887.0
20.3224 1020.0
20.6065 1064.0
20.8906 4477.0
21.1747 1243.0
21.4588 1477.0
21.7429 948.0
22.0269 685.0
22.311 845.0
22.5951 759.0
22.8792 926.0
23.1633 955.0
23.4474 1312.0
23.7315 976.0
24.0156 1401.0
24.2997 1369.0
24.5838 1032.0
24.8679 1026.0
25.152 1510.0
25.436 1160.0
25.7201 1005.0
26.0042 1181.0
26.2883 2174.0
26.5724 1367.0
26.8565 1004.0
27.1406 933.0
27.4247 910.0
27.7088 873.0
27.9929 1324.0
28.277 1100.0
28.5611 1090.0
28.8451 885.0
29.1292 948.0
29.4133 876.0
29.6974 957.0
29.9815 1097.0
30.2656 1243.0
30.5497 1370.0
30.8338 1785.0
31.1179 2768.0
31.402 2709.0
31.6861 1246.0
31.9702 1301.0
32.2542 1021.0
32.5383 1134.0
32.8224 973.0
33.1065 922.0
33.3906 798.0
33.6747 697.0
33.9588 714.0
34.2429 631.0
34.527 649.0
34.8111 710.0
35.0952 744.0
35.3793 589.0
35.6633 543.0
35.9474 483.0
36.2315 589.0
36.5156 561.0
36.7997 500.0
37.0838 446.0
37.3679 436.0
37.652 461.0
37.9361 451.0
38.2202 407.0
38.5043 422.0
38.7884 501.0
39.0724 440.0
39.3565 447.0
39.6406 520.0
39.9247 489.0
40.2088 498.0
40.4929 473.0
40.777 411.0
41.0611 423.0
41.3452 459.0
41.6293 460.0
41.9134 469.0
42.1975 476.0
42.4815 471.0
42.7656 360.0
43.0497 466.0
43.3338 520.0
43.6179 466.0
43.902 457.0
44.1861 443.0
44.4702 435.0
44.7543 413.0
45.0384 465.0
45.3225 414.0
45.6066 442.0
45.8906 422.0
46.1747 422.0
46.4588 395.0
46.7429 399.0
47.027 396.0
47.3111 441.0
47.5952 425.0
47.8793 432.0
48.1634 455.0
48.4475 493.0
48.7316 385.0
49.0156 458.0
49.2997 556.0
49.5838 666.0
49.8679 559.0
50.152 493.0
50.4361 503.0
50.7202 500.0
51.0043 505.0
51.2884 527.0
51.5725 477.0
51.8566 471.0
52.1407 438.0
52.4247 443.0
52.7088 454.0
52.9929 402.0
53.277 458.0
53.5611 419.0
53.8452 444.0
54.1293 430.0
54.4134 473.0
54.6975 412.0
54.9816 399.0
55.2657 454.0
55.5498 435.0
55.8338 467.0
56.1179 418.0
56.402 424.0
56.6861 470.0
56.9702 425.0
57.2543 441.0
57.5384 340.0
57.8225 384.0
58.1066 380.0
58.3907 323.0
58.6748 377.0
58.9589 372.0
59.2429 340.0
59.527 402.0
59.8111 382.0
60.0952 408.0
60.3793 425.0
60.6634 386.0
60.9475 354.0
61.2316 381.0
61.5157 371.0
61.7998 410.0
62.0839 402.0
62.368 376.0
62.652 389.0
62.9361 341.0
63.2202 377.0
63.5043 364.0
63.7884 336.0
64.0725 370.0
64.3566 351.0
64.6407 357.0
64.9248 338.0
65.2089 380.0
65.493 355.0
65.7771 352.0
66.0611 345.0
66.3452 368.0
66.6293 353.0
66.9134 365.0
67.1975 412.0
67.4816 354.0
67.7657 344.0
68.0498 357.0
68.3339 373.0
68.618 404.0
68.9021 363.0
69.1862 349.0
69.4702 329.0
69.7543 375.0
70.0384 354.0
70.3225 344.0
70.6066 365.0
70.8907 375.0
71.1748 328.0
71.4589 348.0
71.743 345.0
72.0271 311.0
72.3112 331.0
72.5952 344.0
72.8793 338.0
73.1634 363.0
73.4475 315.0
73.7316 309.0
74.0157 310.0
74.2998 301.0
74.5839 323.0
74.868 331.0
75.1521 331.0
75.4362 306.0
75.7203 304.0
76.0043 322.0
76.2884 316.0
76.5725 298.0
76.8566 289.0
77.1407 258.0
77.4248 274.0
77.7089 279.0
77.993 294.0
78.2771 263.0
78.5612 311.0
78.8453 282.0
79.1294 248.0
79.4134 243.0
79.6975 236.0
79.9816 264.0
80.2657 272.0
80.5498 250.0
80.8339 245.0
81.118 259.0
81.4021 233.0
81.6862 236.0
81.9703 229.0
82.2544 248.0
82.5385 239.0
82.8225 237.0
83.1066 237.0
83.3907 221.0
83.6748 247.0
83.9589 224.0
84.243 215.0
84.5271 200.0
84.8112 208.0
85.0953 221.0
85.3794 179.0
85.6635 191.0
85.9476 203.0
86.2316 196.0
86.5157 199.0
86.7998 189.0
87.0839 194.0
87.368 180.0
87.6521 178.0
87.9362 194.0
88.2203 176.0
88.5044 188.0
88.7885 141.0
89.0726 189.0
89.3567 177.0
89.6407 162.0
89.9248 191.0
89.9415 178.0

File: 20241114_SAPO-34-2_calc_Probe-2.xy
4.98146 955.0
5.26555 922.0
5.54964 846.0
5.83373 816.0
6.11782 789.0
6.40191 750.0
6.68601 729.0
6.9701 709.0
7.25419 668.0
7.53828 632.0
7.82237 612.0
8.10646 573.0
8.39055 597.0
8.67465 616.0
8.95874 598.0
9.24283 865.0
9.52692 10025.0
9.81101 1439.0
10.0951 956.0
10.3792 674.0
10.6633 790.0
10.9474 618.0
11.2315 587.0
11.5156 565.0
11.7997 571.0
12.0837 575.0
12.3678 585.0
12.6519 656.0
12.936 2708.0
13.2201 813.0
13.5042 727.0
13.7883 524.0
14.0724 666.0
14.3565 505.0
14.6406 447.0
14.9247 500.0
15.2088 539.0
15.4928 686.0
15.7769 632.0
16.061 1273.0
16.3451 788.0
16.6292 725.0
16.9133 910.0
17.1974 876.0
17.4815 795.0
17.7656 1085.0
18.0497 1018.0
18.3338 695.0
18.6179 698.0
18.9019 763.0
19.186 1291.0
19.4701 879.0
19.7542 923.0
20.0383 934.0
20.3224 961.0
20.6065 1652.0
20.8906 2774.0
21.1747 1205.0
21.4588 1089.0
21.7429 785.0
22.0269 786.0
22.311 809.0
22.5951 927.0
22.8792 912.0
23.1633 1214.0
23.4474 1042.0
23.7315 1008.0
24.0156 1304.0
24.2997 1158.0
24.5838 1064.0
24.8679 1151.0
25.152 1562.0
25.436 1196.0
25.7201 1119.0
26.0042 1533.0
26.2883 1692.0
26.5724 1292.0
26.8565 1080.0
27.1406 1026.0
27.4247 958.0
27.7088 1009.0
27.9929 1081.0
28.277 1145.0
28.5611 1052.0
28.8451 1055.0
29.1292 1079.0
29.4133 947.0
29.6974 1057.0
29.9815 1193.0
30.2656 1321.0
30.5497 1406.0
30.8338 2463.0
31.1179 2334.0
31.402 2098.0
31.6861 1470.0
31.9702 1319.0
32.2542 1054.0
32.5383 1065.0
32.8224 1004.0
33.1065 908.0
33.3906 772.0
33.6747 794.0
33.9588 688.0
34.2429 683.0
34.527 703.0
34.8111 888.0
35.0952 606.0
35.3793 619.0
35.6633 585.0
35.9474 547.0
36.2315 635.0
36.5156 552.0
36.7997 517.0
37.0838 465.0
37.3679 465.0
37.652 429.0
37.9361 449.0
38.2202 429.0
38.5043 483.0
38.7884 483.0
39.0724 429.0
39.3565 492.0
39.6406 458.0
39.9247 485.0
40.2088 460.0
40.4929 466.0
40.777 424.0
41.0611 434.0
41.3452 416.0
41.6293 450.0
41.9134 446.0
42.1975 439.0
42.4815 447.0
42.7656 430.0
43.0497 436.0
43.3338 507.0
43.6179 455.0
43.902 491.0
44.1861 457.0
44.4702 432.0
44.7543 433.0
45.0384 428.0
45.3225 433.0
45.6066 384.0
45.8906 401.0
46.1747 408.0
46.4588 430.0
46.7429 396.0
47.027 430.0
47.3111 429.0
47.5952 448.0
47.8793 401.0
48.1634 458.0
48.4475 471.0
48.7316 430.0
49.0156 458.0
49.2997 601.0
49.5838 584.0
49.8679 500.0
50.152 475.0
50.4361 470.0
50.7202 449.0
51.0043 503.0
51.2884 549.0
51.5725 442.0
51.8566 458.0
52.1407 450.0
52.4247 433.0
52.7088 441.0
52.9929 443.0
53.277 433.0
53.5611 448.0
53.8452 491.0
54.1293 430.0
54.4134 401.0
54.6975 391.0
54.9816 396.0
55.2657 419.0
55.5498 401.0
55.8338 445.0
56.1179 423.0
56.402 414.0
56.6861 436.0
56.9702 415.0
57.2543 391.0
57.5384 366.0
57.8225 372.0
58.1066 395.0
58.3907 365.0
58.6748 382.0
58.9589 354.0
59.2429 361.0
59.527 317.0
59.8111 344.0
60.0952 395.0
60.3793 426.0
60.6634 415.0
60.9475 395.0
61.2316 375.0
61.5157 349.0
61.7998 398.0
62.0839 382.0
62.368 364.0
62.652 375.0
62.9361 352.0
63.2202 339.0
63.5043 340.0
63.7884 310.0
64.0725 341.0
64.3566 317.0
64.6407 350.0
64.9248 341.0
65.2089 337.0
65.493 322.0
65.7771 319.0
66.0611 340.0
66.3452 346.0
66.6293 344.0
66.9134 385.0
67.1975 339.0
67.4816 384.0
67.7657 371.0
68.0498 375.0
68.3339 321.0
68.618 326.0
68.9021 338.0
69.1862 345.0
69.4702 381.0
69.7543 361.0
70.0384 366.0
70.3225 356.0
70.6066 369.0
70.8907 340.0
71.1748 325.0
71.4589 322.0
71.743 333.0
72.0271 309.0
72.3112 306.0
72.5952 295.0
72.8793 320.0
73.1634 332.0
73.4475 333.0
73.7316 319.0
74.0157 324.0
74.2998 285.0
74.5839 315.0
74.868 318.0
75.1521 283.0
75.4362 287.0
75.7203 290.0
76.0043 307.0
76.2884 325.0
76.5725 307.0
76.8566 304.0
77.1407 286.0
77.4248 285.0
77.7089 264.0
77.993 261.0
78.2771 276.0
78.5612 273.0
78.8453 275.0
79.1294 289.0
79.4134 260.0
79.6975 244.0
79.9816 248.0
80.2657 241.0
80.5498 245.0
80.8339 239.0
81.118 244.0
81.4021 217.0
81.6862 221.0
81.9703 217.0
82.2544 239.0
82.5385 198.0
82.8225 190.0
83.1066 209.0
83.3907 219.0
83.6748 219.0
83.9589 198.0
84.243 210.0
84.5271 205.0
84.8112 189.0
85.0953 195.0
85.3794 194.0
85.6635 199.0
85.9476 209.0
86.2316 199.0
86.5157 190.0
86.7998 168.0
87.0839 179.0
87.368 186.0
87.6521 183.0
87.9362 170.0
88.2203 193.0
88.5044 191.0
88.7885 167.0
89.0726 138.0
89.3567 160.0
89.6407 151.0
89.9248 177.0
89.9415 179.0

File: 20241114_SAPO-34-2_calc_Probe-3.xy
4.98146 976.0
5.26555 889.0
5.54964 779.0
5.83373 747.0
6.11782 754.0
6.40191 697.0
6.68601 656.0
6.9701 653.0
7.25419 604.0
7.53828 673.0
7.82237 629.0
8.10646 587.0
8.39055 602.0
8.67465 568.0
8.95874 570.0
9.24283 657.0
9.52692 3603.0
9.81101 1486.0
10.0951 737.0
10.3792 724.0
10.6633 698.0
10.9474 650.0
11.2315 617.0
11.5156 554.0
11.7997 551.0
12.0837 545.0
12.3678 525.0
12.6519 537.0
12.936 1351.0
13.2201 803.0
13.5042 756.0
13.7883 561.0
14.0724 612.0
14.3565 483.0
14.6406 438.0
14.9247 487.0
15.2088 482.0
15.4928 497.0
15.7769 552.0
16.061 797.0
16.3451 1451.0
16.6292 728.0
16.9133 1031.0
17.1974 1241.0
17.4815 872.0
17.7656 882.0
18.0497 1055.0
18.3338 678.0
18.6179 728.0
18.9019 680.0
19.186 1053.0
19.4701 808.0
19.7542 896.0
20.0383 906.0
20.3224 917.0
20.6065 1142.0
20.8906 4014.0
21.1747 1220.0
21.4588 1472.0
21.7429 1028.0
22.0269 759.0
22.311 888.0
22.5951 872.0
22.8792 828.0
23.1633 913.0
23.4474 1309.0
23.7315 1048.0
24.0156 1350.0
24.2997 1390.0
24.5838 1243.0
24.8679 1192.0
25.152 1544.0
25.436 1208.0
25.7201 1212.0
26.0042 1494.0
26.2883 2246.0
26.5724 1350.0
26.8565 1126.0
27.1406 1068.0
27.4247 1072.0
27.7088 978.0
27.9929 1276.0
28.277 1213.0
28.5611 1253.0
28.8451 1113.0
29.1292 1035.0
29.4133 989.0
29.6974 1101.0
29.9815 1256.0
30.2656 1418.0
30.5497 1569.0
30.8338 2168.0
31.1179 2356.0
31.402 2712.0
31.6861 1594.0
31.9702 1367.0
32.2542 1169.0
32.5383 1131.0
32.8224 1133.0
33.1065 1000.0
33.3906 891.0
33.6747 850.0
33.9588 798.0
34.2429 746.0
34.527 801.0
34.8111 756.0
35.0952 682.0
35.3793 625.0
35.6633 615.0
35.9474 537.0
36.2315 605.0
36.5156 649.0
36.7997 565.0
37.0838 486.0
37.3679 513.0
37.652 497.0
37.9361 475.0
38.2202 509.0
38.5043 486.0
38.7884 465.0
39.0724 483.0
39.3565 543.0
39.6406 523.0
39.9247 489.0
40.2088 525.0
40.4929 463.0
40.777 474.0
41.0611 464.0
41.3452 503.0
41.6293 493.0
41.9134 496.0
42.1975 462.0
42.4815 477.0
42.7656 482.0
43.0497 502.0
43.3338 513.0
43.6179 534.0
43.902 557.0
44.1861 485.0
44.4702 492.0
44.7543 497.0
45.0384 505.0
45.3225 505.0
45.6066 511.0
45.8906 470.0
46.1747 442.0
46.4588 428.0
46.7429 502.0
47.027 438.0
47.3111 487.0
47.5952 460.0
47.8793 470.0
48.1634 507.0
48.4475 489.0
48.7316 466.0
49.0156 553.0
49.2997 618.0
49.5838 667.0
49.8679 572.0
50.152 538.0
50.4361 540.0
50.7202 507.0
51.0043 574.0
51.2884 604.0
51.5725 534.0
51.8566 534.0
52.1407 510.0
52.4247 477.0
52.7088 476.0
52.9929 497.0
53.277 504.0
53.5611 514.0
53.8452 584.0
54.1293 469.0
54.4134 445.0
54.6975 516.0
54.9816 495.0
55.2657 479.0
55.5498 509.0
55.8338 521.0
56.1179 496.0
56.402 538.0
56.6861 539.0
56.9702 492.0
57.2543 455.0
57.5384 457.0
57.8225 414.0
58.1066 436.0
58.3907 399.0
58.6748 416.0
58.9589 399.0
59.2429 407.0
59.527 395.0
59.8111 418.0
60.0952 448.0
60.3793 469.0
60.6634 454.0
60.9475 425.0
61.2316 403.0
61.5157 404.0
61.7998 430.0
62.0839 465.0
62.368 420.0
62.652 435.0
62.9361 411.0
63.2202 428.0
63.5043 393.0
63.7884 394.0
64.0725 418.0
64.3566 422.0
64.6407 424.0
64.9248 385.0
65.2089 439.0
65.493 348.0
65.7771 418.0
66.0611 412.0
66.3452 384.0
66.6293 410.0
66.9134 448.0
67.1975 426.0
67.4816 438.0
67.7657 454.0
68.0498 428.0
68.3339 411.0
68.618 402.0
68.9021 362.0
69.1862 403.0
69.4702 356.0
69.7543 432.0
70.0384 353.0
70.3225 387.0
70.6066 400.0
70.8907 397.0
71.1748 403.0
71.4589 423.0
71.743 400.0
72.0271 370.0
72.3112 379.0
72.5952 393.0
72.8793 365.0
73.1634 373.0
73.4475 355.0
73.7316 357.0
74.0157 338.0
74.2998 356.0
74.5839 386.0
74.868 389.0
75.1521 353.0
75.4362 361.0
75.7203 364.0
76.0043 330.0
76.2884 346.0
76.5725 361.0
76.8566 317.0
77.1407 333.0
77.4248 302.0
77.7089 317.0
77.993 345.0
78.2771 315.0
78.5612 316.0
78.8453 349.0
79.1294 317.0
79.4134 311.0
79.6975 302.0
79.9816 313.0
80.2657 284.0
80.5498 301.0
80.8339 273.0
81.118 307.0
81.4021 300.0
81.6862 255.0
81.9703 271.0
82.2544 289.0
82.5385 252.0
82.8225 305.0
83.1066 277.0
83.3907 248.0
83.6748 241.0
83.9589 287.0
84.243 252.0
84.5271 247.0
84.8112 242.0
85.0953 226.0
85.3794 246.0
85.6635 228.0
85.9476 222.0
86.2316 205.0
86.5157 245.0
86.7998 204.0
87.0839 242.0
87.368 220.0
87.6521 245.0
87.9362 227.0
88.2203 228.0
88.5044 216.0
88.7885 206.0
89.0726 226.0
89.3567 220.0
89.6407 212.0
89.9248 201.0
89.9415 211.0

File: 20241114_SAPO-34-2_calc_Probe-4.xy
4.98146 947.0
5.26555 840.0
5.54964 768.0
5.83373 768.0
6.11782 716.0
6.40191 650.0
6.68601 666.0
6.9701 660.0
7.25419 728.0
7.53828 1364.0
7.82237 574.0
8.10646 552.0
8.39055 558.0
8.67465 580.0
8.95874 525.0
9.24283 609.0
9.52692 3178.0
9.81101 1125.0
10.0951 609.0
10.3792 626.0
10.6633 548.0
10.9474 588.0
11.2315 516.0
11.5156 478.0
11.7997 511.0
12.0837 496.0
12.3678 506.0
12.6519 475.0
12.936 1435.0
13.2201 632.0
13.5042 631.0
13.7883 475.0
14.0724 500.0
14.3565 395.0
14.6406 411.0
14.9247 621.0
15.2088 426.0
15.4928 460.0
15.7769 506.0
16.061 778.0
16.3451 1035.0
16.6292 614.0
16.9133 835.0
17.1974 889.0
17.4815 720.0
17.7656 701.0
18.0497 712.0
18.3338 572.0
18.6179 529.0
18.9019 599.0
19.186 934.0
19.4701 657.0
19.7542 1468.0
20.0383 767.0
20.3224 781.0
20.6065 1017.0
20.8906 2777.0
21.1747 1474.0
21.4588 1272.0
21.7429 850.0
22.0269 645.0
22.311 1101.0
22.5951 1279.0
22.8792 717.0
23.1633 817.0
23.4474 1015.0
23.7315 852.0
24.0156 1078.0
24.2997 1085.0
24.5838 1114.0
24.8679 1104.0
25.152 1231.0
25.436 1041.0
25.7201 1070.0
26.0042 1587.0
26.2883 1713.0
26.5724 1082.0
26.8565 953.0
27.1406 917.0
27.4247 855.0
27.7088 837.0
27.9929 1057.0
28.277 935.0
28.5611 949.0
28.8451 847.0
29.1292 1135.0
29.4133 829.0
29.6974 927.0
29.9815 1303.0
30.2656 1111.0
30.5497 1359.0
30.8338 1810.0
31.1179 1975.0
31.402 2193.0
31.6861 1208.0
31.9702 1177.0
32.2542 955.0
32.5383 976.0
32.8224 915.0
33.1065 783.0
33.3906 748.0
33.6747 835.0
33.9588 699.0
34.2429 632.0
34.527 902.0
34.8111 697.0
35.0952 641.0
35.3793 578.0
35.6633 529.0
35.9474 519.0
36.2315 511.0
36.5156 529.0
36.7997 495.0
37.0838 523.0
37.3679 445.0
37.652 422.0
37.9361 606.0
38.2202 409.0
38.5043 423.0
38.7884 469.0
39.0724 426.0
39.3565 476.0
39.6406 459.0
39.9247 424.0
40.2088 485.0
40.4929 444.0
40.777 432.0
41.0611 453.0
41.3452 433.0
41.6293 456.0
41.9134 451.0
42.1975 457.0
42.4815 486.0
42.7656 409.0
43.0497 500.0
43.3338 518.0
43.6179 521.0
43.902 454.0
44.1861 446.0
44.4702 469.0
44.7543 439.0
45.0384 443.0
45.3225 412.0
45.6066 408.0
45.8906 430.0
46.1747 402.0
46.4588 440.0
46.7429 379.0
47.027 438.0
47.3111 427.0
47.5952 503.0
47.8793 444.0
48.1634 469.0
48.4475 431.0
48.7316 388.0
49.0156 465.0
49.2997 555.0
49.5838 567.0
49.8679 469.0
50.152 487.0
50.4361 461.0
50.7202 512.0
51.0043 501.0
51.2884 531.0
51.5725 492.0
51.8566 479.0
52.1407 442.0
52.4247 412.0
52.7088 430.0
52.9929 419.0
53.277 424.0
53.5611 500.0
53.8452 491.0
54.1293 430.0
54.4134 462.0
54.6975 415.0
54.9816 461.0
55.2657 378.0
55.5498 476.0
55.8338 489.0
56.1179 482.0
56.402 396.0
56.6861 448.0
56.9702 439.0
57.2543 425.0
57.5384 401.0
57.8225 363.0
58.1066 397.0
58.3907 391.0
58.6748 413.0
58.9589 443.0
59.2429 331.0
59.527 409.0
59.8111 378.0
60.0952 431.0
60.3793 423.0
60.6634 401.0
60.9475 391.0
61.2316 384.0
61.5157 415.0
61.7998 402.0
62.0839 401.0
62.368 396.0
62.652 361.0
62.9361 371.0
63.2202 341.0
63.5043 401.0
63.7884 353.0
64.0725 348.0
64.3566 386.0
64.6407 349.0
64.9248 387.0
65.2089 399.0
65.493 376.0
65.7771 377.0
66.0611 371.0
66.3452 364.0
66.6293 392.0
66.9134 351.0
67.1975 385.0
67.4816 407.0
67.7657 363.0
68.0498 422.0
68.3339 367.0
68.618 392.0
68.9021 354.0
69.1862 320.0
69.4702 342.0
69.7543 365.0
70.0384 370.0
70.3225 380.0
70.6066 377.0
70.8907 385.0
71.1748 402.0
71.4589 350.0
71.743 323.0
72.0271 361.0
72.3112 366.0
72.5952 391.0
72.8793 361.0
73.1634 313.0
73.4475 369.0
73.7316 306.0
74.0157 336.0
74.2998 333.0
74.5839 341.0
74.868 360.0
75.1521 356.0
75.4362 345.0
75.7203 306.0
76.0043 336.0
76.2884 313.0
76.5725 322.0
76.8566 298.0
77.1407 318.0
77.4248 324.0
77.7089 288.0
77.993 278.0
78.2771 316.0
78.5612 291.0
78.8453 315.0
79.1294 307.0
79.4134 292.0
79.6975 273.0
79.9816 252.0
80.2657 267.0
80.5498 250.0
80.8339 282.0
81.118 305.0
81.4021 289.0
81.6862 271.0
81.9703 273.0
82.2544 252.0
82.5385 239.0
82.8225 242.0
83.1066 242.0
83.3907 223.0
83.6748 261.0
83.9589 244.0
84.243 214.0
84.5271 198.0
84.8112 231.0
85.0953 230.0
85.3794 235.0
85.6635 211.0
85.9476 210.0
86.2316 217.0
86.5157 198.0
86.7998 184.0
87.0839 200.0
87.368 199.0
87.6521 220.0
87.9362 230.0
88.2203 212.0
88.5044 221.0
88.7885 185.0
89.0726 167.0
89.3567 175.0
89.6407 183.0
89.9248 168.0
89.9415 182.0