Folder: bachelor_thesis/code/XRD_Analysis/Zeolites/data_files/ZnZrOx

Note: README.md
# bachelor_thesis
Hydrogensiation of CO2 to higher alcohols

File: 20241023_ZnZrOx_CP_240910.xy
4.98146 995.0
5.26555 850.0
5.54964 826.0
5.83373 819.0
6.11782 757.0
6.40191 745.0
6.68601 685.0
6.9701 669.0
7.25419 630.0
7.53828 596.0
7.82237 602.0
8.10646 632.0
8.39055 565.0
8.67465 516.0
8.95874 544.0
9.24283 493.0
9.52692 464.0
9.81101 467.0
10.0951 394.0
10.3792 420.0
10.6633 436.0
10.9474 380.0
11.2315 402.0
11.5156 372.0
11.7997 398.0
12.0837 362.0
12.3678 339.0
12.6519 348.0
12.936 310.0
13.2201 328.0
13.5042 317.0
13.7883 283.0
14.0724 314.0
14.3565 287.0
14.6406 286.0
14.9247 278.0
15.2088 283.0
15.4928 275.0
15.7769 242.0
16.061 293.0
16.3451 266.0
16.6292 233.0
16.9133 236.0
17.1974 263.0
17.4815 231.0
17.7656 241.0
18.0497 252.0
18.3338 239.0
18.6179 220.0
18.9019 259.0
19.186 205.0
19.4701 213.0
19.7542 229.0
20.0383 209.0
20.3224 225.0
20.6065 213.0
20.8906 222.0
21.1747 200.0
21.4588 208.0
21.7429 214.0
22.0269 208.0
22.311 219.0
22.5951 228.0
22.8792 200.0
23.1633 230.0
23.4474 204.0
23.7315 240.0
24.0156 222.0
24.2997 219.0
24.5838 220.0
24.8679 242.0
25.152 237.0
25.436 238.0
25.7201 213.0
26.0042 232.0
26.2883 236.0
26.5724 266.0
26.8565 257.0
27.1406 289.0
27.4247 304.0
27.7088 356.0
27.9929 371.0
28.277 475.0
28.5611 522.0
28.8451 646.0
29.1292 825.0
29.4133 1238.0
29.6974 1762.0
29.9815 3109.0
30.2656 7567.0
30.5497 14319.0
30.8338 4376.0
31.1179 1830.0
31.402 1019.0
31.6861 672.0
31.9702 522.0
32.2542 403.0
32.5383 423.0
32.8224 347.0
33.1065 308.0
33.3906 332.0
33.6747 324.0
33.9588 377.0
34.2429 438.0
34.527 523.0
34.8111 832.0
35.0952 1559.0
35.3793 3448.0
35.6633 1159.0
35.9474 528.0
36.2315 316.0
36.5156 247.0
36.7997 247.0
37.0838 198.0
37.3679 213.0
37.652 208.0
37.9361 173.0
38.2202 176.0
38.5043 185.0
38.7884 174.0
39.0724 176.0
39.3565 154.0
39.6406 188.0
39.9247 155.0
40.2088 165.0
40.4929 164.0
40.777 184.0
41.0611 176.0
41.3452 179.0
41.6293 169.0
41.9134 178.0
42.1975 196.0
42.4815 238.0
42.7656 205.0
43.0497 219.0
43.3338 209.0
43.6179 217.0
43.902 239.0
44.1861 228.0
44.4702 196.0
44.7543 207.0
45.0384 209.0
45.3225 188.0
45.6066 211.0
45.8906 210.0
46.1747 214.0
46.4588 209.0
46.7429 239.0
47.027 239.0
47.3111 238.0
47.5952 238.0
47.8793 288.0
48.1634 320.0
48.4475 360.0
48.7316 426.0
49.0156 434.0
49.2997 554.0
49.5838 741.0
49.8679 944.0
50.152 1503.0
50.4361 2499.0
50.7202 4747.0
51.0043 4768.0
51.2884 1927.0
51.5725 912.0
51.8566 587.0
52.1407 420.0
52.4247 349.0
52.7088 263.0
52.9929 236.0
53.277 251.0
53.5611 253.0
53.8452 257.0
54.1293 231.0
54.4134 242.0
54.6975 197.0
54.9816 248.0
55.2657 235.0
55.5498 204.0
55.8338 236.0
56.1179 207.0
56.402 217.0
56.6861 237.0
56.9702 266.0
57.2543 274.0
57.5384 297.0
57.8225 315.0
58.1066 323.0
58.3907 408.0
58.6748 402.0
58.9589 587.0
59.2429 679.0
59.527 865.0
59.8111 1224.0
60.0952 2070.0
60.3793 3440.0
60.6634 2808.0
60.9475 1277.0
61.2316 770.0
61.5157 470.0
61.7998 396.0
62.0839 395.0
62.368 350.0
62.652 384.0
62.9361 487.0
63.2202 676.0
63.5043 636.0
63.7884 493.0
64.0725 329.0
64.3566 264.0
64.6407 211.0
64.9248 215.0
65.2089 200.0
65.493 178.0
65.7771 184.0
66.0611 177.0
66.3452 167.0
66.6293 168.0
66.9134 164.0
67.1975 160.0
67.4816 157.0
67.7657 152.0
68.0498 148.0
68.3339 163.0
68.618 145.0
68.9021 134.0
69.1862 150.0
69.4702 142.0
69.7543 130.0
70.0384 137.0
70.3225 128.0
70.6066 157.0
70.8907 118.0
71.1748 133.0
71.4589 142.0
71.743 144.0
72.0271 135.0
72.3112 136.0
72.5952 134.0
72.8793 159.0
73.1634 198.0
73.4475 188.0
73.7316 248.0
74.0157 244.0
74.2998 381.0
74.5839 551.0
74.868 600.0
75.1521 372.0
75.4362 235.0
75.7203 193.0
76.0043 159.0
76.2884 122.0
76.5725 179.0
76.8566 120.0
77.1407 149.0
77.4248 151.0
77.7089 139.0
77.993 133.0
78.2771 136.0
78.5612 158.0
78.8453 157.0
79.1294 178.0
79.4134 164.0
79.6975 181.0
79.9816 194.0
80.2657 220.0
80.5498 209.0
80.8339 235.0
81.118 257.0
81.4021 303.0
81.6862 363.0
81.9703 433.0
82.2544 571.0
82.5385 710.0
82.8225 891.0
83.1066 708.0
83.3907 505.0
83.6748 375.0
83.9589 346.0
84.243 330.0
84.5271 358.0
84.8112 415.0
85.0953 503.0
85.3794 626.0
85.6635 584.0
85.9476 424.0
86.2316 300.0
86.5157 241.0
86.7998 219.0
87.0839 199.0
87.368 163.0
87.6521 143.0
87.9362 169.0
88.2203 159.0
88.5044 174.0
88.7885 169.0
89.0726 137.0
89.3567 158.0
89.6407 165.0
89.9248 151.0
89.9415 169.0