Folder: bachelor_thesis/code/XRD_Analysis/Zeolites/data_files/ZnZrOx-Zeolite

Note: README.md
# bachelor_thesis
Hydrogensiation of CO2 to higher alcohols

File: 20241029_ZnZrOx_SAPO-14-1_calc_PID-tested.xy
4.98146 989.0
5.26555 931.0
5.54964 880.0
5.83373 869.0
6.11782 769.0
6.40191 757.0
6.68601 719.0
6.9701 674.0
7.25419 666.0
7.53828 672.0
7.82237 626.0
8.10646 612.0
8.39055 1194.0
8.67465 1531.0
8.95874 878.0
9.24283 750.0
9.52692 972.0
9.81101 532.0
10.0951 527.0
10.3792 466.0
10.6633 487.0
10.9474 828.0
11.2315 545.0
11.5156 476.0
11.7997 502.0
12.0837 439.0
12.3678 466.0
12.6519 490.0
12.936 1329.0
13.2201 1325.0
13.5042 1396.0
13.7883 492.0
14.0724 525.0
14.3565 550.0
14.6406 511.0
14.9247 422.0
15.2088 441.0
15.4928 457.0
15.7769 730.0
16.061 1033.0
16.3451 433.0
16.6292 444.0
16.9133 460.0
17.1974 578.0
17.4815 555.0
17.7656 579.0
18.0497 514.0
18.3338 551.0
18.6179 751.0
18.9019 575.0
19.186 544.0
19.4701 538.0
19.7542 591.0
20.0383 594.0
20.3224 559.0
20.6065 715.0
20.8906 772.0
21.1747 1309.0
21.4588 1635.0
21.7429 1284.0
22.0269 2274.0
22.311 1225.0
22.5951 823.0
22.8792 708.0
23.1633 685.0
23.4474 673.0
23.7315 654.0
24.0156 644.0
24.2997 808.0
24.5838 711.0
24.8679 880.0
25.152 860.0
25.436 916.0
25.7201 842.0
26.0042 849.0
26.2883 694.0
26.5724 715.0
26.8565 944.0
27.1406 836.0
27.4247 759.0
27.7088 754.0
27.9929 847.0
28.277 896.0
28.5611 984.0
28.8451 1254.0
29.1292 1307.0
29.4133 1557.0
29.6974 1630.0
29.9815 2163.0
30.2656 3445.0
30.5497 5411.0
30.8338 1825.0
31.1179 1031.0
31.402 863.0
31.6861 854.0
31.9702 962.0
32.2542 944.0
32.5383 993.0
32.8224 714.0
33.1065 600.0
33.3906 606.0
33.6747 621.0
33.9588 626.0
34.2429 547.0
34.527 620.0
34.8111 686.0
35.0952 853.0
35.3793 1507.0
35.6633 642.0
35.9474 460.0
36.2315 456.0
36.5156 427.0
36.7997 382.0
37.0838 398.0
37.3679 407.0
37.652 355.0
37.9361 414.0
38.2202 415.0
38.5043 365.0
38.7884 366.0
39.0724 309.0
39.3565 342.0
39.6406 344.0
39.9247 332.0
40.2088 332.0
40.4929 331.0
40.777 314.0
41.0611 304.0
41.3452 317.0
41.6293 346.0
41.9134 361.0
42.1975 344.0
42.4815 321.0
42.7656 403.0
43.0497 389.0
43.3338 372.0
43.6179 368.0
43.902 382.0
44.1861 351.0
44.4702 388.0
44.7543 351.0
45.0384 344.0
45.3225 324.0
45.6066 340.0
45.8906 377.0
46.1747 351.0
46.4588 358.0
46.7429 353.0
47.027 349.0
47.3111 380.0
47.5952 382.0
47.8793 369.0
48.1634 375.0
48.4475 363.0
48.7316 400.0
49.0156 438.0
49.2997 429.0
49.5838 518.0
49.8679 500.0
50.152 636.0
50.4361 913.0
50.7202 1714.0
51.0043 1612.0
51.2884 807.0
51.5725 616.0
51.8566 477.0
52.1407 438.0
52.4247 422.0
52.7088 379.0
52.9929 424.0
53.277 387.0
53.5611 336.0
53.8452 367.0
54.1293 364.0
54.4134 342.0
54.6975 354.0
54.9816 309.0
55.2657 334.0
55.5498 367.0
55.8338 360.0
56.1179 329.0
56.402 325.0
56.6861 348.0
56.9702 336.0
57.2543 378.0
57.5384 366.0
57.8225 399.0
58.1066 395.0
58.3907 391.0
58.6748 393.0
58.9589 407.0
59.2429 455.0
59.527 473.0
59.8111 601.0
60.0952 802.0
60.3793 1207.0
60.6634 1052.0
60.9475 658.0
61.2316 440.0
61.5157 389.0
61.7998 370.0
62.0839 386.0
62.368 337.0
62.652 361.0
62.9361 381.0
63.2202 381.0
63.5043 457.0
63.7884 388.0
64.0725 326.0
64.3566 308.0
64.6407 280.0
64.9248 284.0
65.2089 263.0
65.493 283.0
65.7771 297.0
66.0611 263.0
66.3452 271.0
66.6293 260.0
66.9134 282.0
67.1975 266.0
67.4816 256.0
67.7657 276.0
68.0498 268.0
68.3339 310.0
68.618 290.0
68.9021 255.0
69.1862 241.0
69.4702 258.0
69.7543 266.0
70.0384 266.0
70.3225 242.0
70.6066 295.0
70.8907 242.0
71.1748 283.0
71.4589 262.0
71.743 286.0
72.0271 243.0
72.3112 244.0
72.5952 238.0
72.8793 295.0
73.1634 251.0
73.4475 304.0
73.7316 236.0
74.0157 277.0
74.2998 262.0
74.5839 310.0
74.868 320.0
75.1521 295.0
75.4362 258.0
75.7203 288.0
76.0043 269.0
76.2884 230.0
76.5725 195.0
76.8566 232.0
77.1407 193.0
77.4248 217.0
77.7089 219.0
77.993 243.0
78.2771 217.0
78.5612 214.0
78.8453 212.0
79.1294 200.0
79.4134 229.0
79.6975 205.0
79.9816 240.0
80.2657 211.0
80.5498 217.0
80.8339 236.0
81.118 227.0
81.4021 229.0
81.6862 267.0
81.9703 251.0
82.2544 278.0
82.5385 339.0
82.8225 380.0
83.1066 301.0
83.3907 270.0
83.6748 253.0
83.9589 205.0
84.243 233.0
84.5271 214.0
84.8112 236.0
85.0953 241.0
85.3794 257.0
85.6635 287.0
85.9476 237.0
86.2316 205.0
86.5157 160.0
86.7998 165.0
87.0839 220.0
87.368 151.0
87.6521 166.0
87.9362 182.0
88.2203 176.0
88.5044 164.0
88.7885 196.0
89.0726 144.0
89.3567 178.0
89.6407 170.0
89.9248 152.0
89.9415 159.0